Data from 30cm_AbsoluteIrradiance_12-38-16-170.txt Node
Date: Mon Jul 11 12:38:16 CEST 2022
User: Ocean Optics
Spectrometer: QEP02356
Trigger mode: 4
Integration Time (sec): 8.000000E-1
Scans to average: 1
Electric dark correction enabled: true
Nonlinearity correction enabled: true
Boxcar width: 0
XAxis mode: Wavelengths
Number of Pixels in Spectrum: 1044
>>>>>Begin Spectral Data<<<<<
194.596	0
195.4	0
196.203	-0
197.007	-0
197.81	0
198.613	0
199.417	0
200.22	0
201.023	0
201.826	0
202.629	0
203.432	0
204.235	0
205.038	0
205.84	0
206.643	0
207.445	0
208.248	0
209.05	0
209.853	0
210.655	1.25455353
211.457	1.3548616
212.259	1.31160494
213.061	1.40599368
213.863	1.39026755
214.665	1.33049059
215.467	1.38879332
216.269	1.4380285
217.07	1.28961552
217.872	1.20549099
218.674	1.0812001
219.475	0.97454773
220.277	0.96853165
221.078	0.92823187
221.879	0.91005346
222.68	0.82646524
223.481	0.80566837
224.283	0.8366241
225.084	0.80588377
225.884	0.77645522
226.685	0.72067579
227.486	0.74076842
228.287	0.65671384
229.087	0.65827711
229.888	0.63718224
230.688	0.60782928
231.489	0.57094593
232.289	0.54294405
233.089	0.52590418
233.89	0.52630168
234.69	0.53491728
235.49	0.46840921
236.29	0.47254292
237.09	0.46645632
237.89	0.43508216
238.689	0.43743636
239.489	0.4038549
240.289	0.41018748
241.088	0.38940951
241.888	0.37006913
242.687	0.37149674
243.486	0.36545271
244.286	0.33618351
245.085	0.32408945
245.884	0.33213002
246.683	0.31688012
247.482	0.32092886
248.281	0.31803812
249.08	0.30680865
249.878	0.31044835
250.677	0.28144911
251.476	0.30213997
252.274	0.27414133
253.073	0.26683477
253.871	0.26712175
254.67	0.25712861
255.468	0.27857346
256.266	0.25363032
257.064	0.25659318
257.862	0.25112349
258.66	0.23424315
259.458	0.25450963
260.256	0.25321687
261.054	0.25503726
261.851	0.26303063
262.649	0.25769998
263.446	0.25835375
264.244	0.2572966
265.041	0.28116159
265.839	0.28942314
266.636	0.28898444
267.433	0.29174512
268.23	0.30518103
269.027	0.31624184
269.824	0.32758904
270.621	0.31266118
271.418	0.31604795
272.215	0.32813225
273.011	0.35983895
273.808	0.34596869
274.604	0.37843814
275.401	0.38896432
276.197	0.39572033
276.994	0.41942497
277.79	0.42046943
278.586	0.4469724
279.382	0.43771675
280.178	0.47517592
280.974	0.5112903
281.77	0.55461836
282.566	0.57227649
283.361	0.61256125
284.157	0.65504884
284.953	0.69930084
285.748	0.77188332
286.544	0.84624819
287.339	0.92010182
288.134	0.99490004
288.93	1.11168695
289.725	1.20450987
290.52	1.34571205
291.315	1.46371984
292.11	1.5873936
292.905	1.6982192
293.699	1.81606635
294.494	1.97852889
295.289	2.11415422
296.083	2.25895917
296.878	2.47256056
297.672	2.64864472
298.467	2.87128678
299.261	3.05027804
300.055	3.1894925
300.849	3.27464474
301.643	3.36821384
302.437	3.37808265
303.231	3.37573338
304.025	3.41884561
304.819	3.47694482
305.612	3.54814179
306.406	3.6068376
307.2	3.73870859
307.993	3.86294573
308.786	4.04648229
309.58	4.20631439
310.373	4.36460253
311.166	4.67671076
311.959	4.97461102
312.752	5.22372357
313.545	5.5305951
314.338	5.84999209
315.131	6.16661738
315.924	6.53799989
316.716	6.85248754
317.509	7.20887488
318.302	7.59807284
319.094	7.91924327
319.886	8.27379362
320.679	8.49530942
321.471	8.81144824
322.263	9.07377956
323.055	9.37252267
323.847	9.52197389
324.639	9.67184
325.431	9.7853221
326.223	9.83370358
327.015	10.04036808
327.806	10.03574733
328.598	10.09931509
329.389	10.36164034
330.181	10.55604491
330.972	10.74592033
331.763	11.00007518
332.555	11.25184431
333.346	11.55057337
334.137	11.78391608
334.928	12.03649791
335.719	12.1769273
336.51	12.27691058
337.3	12.47066428
338.091	12.51569772
338.882	12.48073582
339.672	12.58018525
340.463	12.64705172
341.253	12.69366864
342.043	12.79394958
342.834	12.92823805
343.624	12.97385413
344.414	13.15043421
345.204	13.30720382
345.994	13.35821873
346.784	13.5384657
347.574	13.62444752
348.363	13.76955521
349.153	13.84870588
349.943	14.03394467
350.732	14.35025451
351.521	14.48443284
352.311	14.59126913
353.1	14.77201708
353.889	14.80742634
354.678	14.97941449
355.468	15.07027856
356.257	15.15328888
357.045	15.11720491
357.834	15.26450835
358.623	15.41701176
359.412	15.45486984
360.2	15.55594038
360.989	15.76518499
361.777	15.82218985
362.566	15.93145814
363.354	16.03939133
364.142	16.11933112
364.931	16.2034992
365.719	16.26142375
366.507	16.09846997
367.295	16.06103642
368.083	15.90739326
368.87	15.86902287
369.658	15.82419259
370.446	16.05178447
371.233	16.3074803
372.021	16.594012
372.808	16.80777783
373.596	17.01370872
374.383	17.23982317
375.17	17.34710798
375.957	17.30344252
376.745	17.10399845
377.532	17.11847751
378.318	17.1867199
379.105	17.01158613
379.892	16.95086382
380.679	17.14546773
381.465	17.41023206
382.252	17.79568315
383.038	18.04474053
383.825	18.26763923
384.611	18.40557394
385.397	18.58100836
386.184	18.74836296
386.97	18.87076273
387.756	18.93295993
388.542	18.71579187
389.328	18.62156324
390.113	18.76570448
390.899	19.2230693
391.685	19.40417927
392.47	19.34713822
393.256	19.03240487
394.041	18.78148367
394.827	18.87774884
395.612	19.50676743
396.397	20.05227673
397.182	20.35753757
397.967	20.59184572
398.752	20.60970599
399.537	20.51117604
400.322	20.09443412
401.107	19.79412067
401.891	19.96068222
402.676	19.58327767
403.461	19.77464186
404.245	19.59680586
405.029	19.84876519
405.814	19.90319719
406.598	19.96456997
407.382	20.05271768
408.166	20.19259669
408.95	20.56563075
409.734	20.859638
410.518	20.81016993
411.302	20.93804654
412.086	21.05571816
412.869	21.28269432
413.653	21.18000691
414.436	21.22462515
415.22	20.99695687
416.003	20.55839492
416.786	20.74077557
417.569	20.67408822
418.353	20.80755657
419.136	21.10536057
419.919	21.37874586
420.701	21.95811974
421.484	21.59929009
422.267	21.37790729
423.05	20.99881763
423.832	20.70147667
424.615	20.87162427
425.397	20.85318774
426.18	20.95646501
426.962	20.82920375
427.744	20.91678966
428.526	20.97633042
429.308	21.09526002
430.09	21.16301345
430.872	21.11263692
431.654	21.19686933
432.436	21.2951074
433.217	21.27390509
433.999	21.43316464
434.781	21.45418718
435.562	21.26547553
436.343	21.58123457
437.125	21.84119992
437.906	22.10491345
438.687	22.46485614
439.468	22.65583968
440.249	22.66164617
441.03	22.28935671
441.811	22.21942258
442.592	22.29845774
443.372	22.23380857
444.153	22.06328719
444.934	21.95259498
445.714	22.04617039
446.494	22.00741785
447.275	21.9888759
448.055	21.99760025
448.835	22.13336981
449.615	23.08499075
450.395	25.19718319
451.175	26.95695429
451.955	26.59404348
452.735	25.27913635
453.515	25.37316195
454.294	24.66256152
455.074	23.74939824
455.853	23.6572714
456.633	24.01987253
457.412	24.44177263
458.191	25.48059403
458.971	26.06772335
459.75	26.03577376
460.529	25.79265529
461.308	25.96139848
462.087	27.2713628
462.865	29.2411698
463.644	31.00106967
464.423	31.19873551
465.201	29.75303029
465.98	28.63654008
466.758	29.32501887
467.537	33.30666451
468.315	38.375236
469.093	40.23747075
469.871	36.74424975
470.649	33.66171673
471.427	31.32743777
472.205	29.37112345
472.983	28.81280945
473.761	30.94492508
474.538	32.23571663
475.316	30.10566376
476.093	26.90770433
476.871	25.47634934
477.648	24.97804135
478.426	24.76784265
479.203	24.61702331
479.98	25.20530467
480.757	26.48459804
481.534	28.3401686
482.311	29.77887426
483.088	29.6311312
483.864	29.43750866
484.641	28.81034305
485.418	27.9285201
486.194	27.05034731
486.971	26.06008324
487.747	25.39036852
488.523	25.00920358
489.3	25.02897285
490.076	25.20698506
490.852	25.40504144
491.628	26.26291684
492.404	28.36701011
493.179	29.97751201
493.955	29.7652031
494.731	28.18822712
495.506	26.57969513
496.282	25.74177947
497.057	25.07308799
497.833	24.79553321
498.608	24.75302404
499.383	24.52716179
500.159	24.36626738
500.934	24.32634186
501.709	24.37417692
502.483	24.35065848
503.258	24.46311296
504.033	24.79289843
504.808	24.73144259
505.582	24.44680522
506.357	24.33300499
507.131	24.2716552
507.906	24.14267229
508.68	24.226215
509.454	24.21234132
510.228	24.1451305
511.002	24.25982298
511.776	24.21282256
512.55	24.29176968
513.324	24.4626698
514.098	24.58892545
514.872	24.66623784
515.645	24.59747075
516.419	24.55303892
517.192	24.66643992
517.966	24.63175851
518.739	24.68499329
519.512	24.77163315
520.285	24.85298176
521.058	24.92496564
521.831	24.8887336
522.604	24.95123297
523.377	24.96267191
524.15	25.01339302
524.923	25.10488733
525.695	25.03834926
526.468	25.18700716
527.24	25.06238654
528.012	25.14108058
528.785	25.11637378
529.557	25.2121476
530.329	25.18474954
531.101	25.26252675
531.873	25.2914412
532.645	25.20950495
533.417	25.25768167
534.189	25.22174232
534.96	25.35876936
535.732	25.43889454
536.503	25.33357738
537.275	25.34188588
538.046	25.42034029
538.818	25.27605552
539.589	25.21289158
540.36	25.22306229
541.131	25.33255863
541.902	25.37279199
542.673	25.48421407
543.444	25.41091099
544.214	25.38606077
544.985	25.21457178
545.756	25.26997817
546.526	25.23678606
547.297	25.20560527
548.067	25.11275493
548.837	25.12771199
549.608	25.06014944
550.378	25.08535374
551.148	24.96537731
551.918	24.97517321
552.688	24.88103697
553.457	25.02595652
554.227	24.94670187
554.997	24.9428656
555.766	24.93464012
556.536	24.88328035
557.305	24.91488351
558.075	24.92443652
558.844	25.03075112
559.613	24.90406768
560.382	24.92393466
561.151	24.98169472
561.92	24.95139301
562.689	25.01402111
563.458	24.98887493
564.227	24.97071315
564.995	25.05302842
565.764	25.01687615
566.532	25.06506708
567.301	25.14974667
568.069	25.29280509
568.837	25.26212226
569.606	25.38973959
570.374	25.58858367
571.142	25.60585608
571.91	25.72132975
572.678	25.61788311
573.445	25.63538655
574.213	25.7449045
574.981	25.80312914
575.748	25.88083172
576.516	25.92369802
577.283	25.87332902
578.05	25.83250355
578.818	25.93714947
579.585	25.96663534
580.352	26.05642595
581.119	26.01608502
581.886	26.08611155
582.653	26.15035915
583.419	26.25153251
584.186	26.33218331
584.953	26.45905082
585.719	26.55676381
586.486	26.50890862
587.252	26.55270243
588.018	26.50351441
588.785	26.37631955
589.551	26.35614299
590.317	26.36475671
591.083	26.37539565
591.849	26.27130283
592.615	26.12964976
593.38	26.02464953
594.146	25.85186012
594.912	25.72039896
595.677	25.60129334
596.443	25.38184216
597.208	25.23450947
597.973	25.0187581
598.738	24.887855
599.504	24.79101873
600.269	24.66515156
601.034	24.4764983
601.798	24.48170507
602.563	24.33548117
603.328	24.29083126
604.093	24.24079955
604.857	24.26950046
605.622	24.24535452
606.386	24.11461019
607.151	24.09057011
607.915	24.10952539
608.679	24.06708845
609.443	24.06061676
610.207	24.11380368
610.971	24.20575359
611.735	24.24178267
612.499	24.43483239
613.262	24.58486871
614.026	24.7049865
614.79	24.87972092
615.553	24.99317577
616.316	25.12584243
617.08	25.40449737
617.843	25.4579254
618.606	25.7324268
619.369	25.98545638
620.132	26.19709989
620.895	26.33618874
621.658	26.46319938
622.421	26.39893488
623.183	26.42007869
623.946	26.05650898
624.709	25.83802282
625.471	25.61970404
626.233	25.47194594
626.996	25.35985501
627.758	25.25989382
628.52	25.26561568
629.282	25.18838447
630.044	25.22405397
630.806	25.25938375
631.568	25.33398165
632.329	25.37121982
633.091	25.56787919
633.853	25.60306804
634.614	25.50131973
635.376	25.38424968
636.137	25.17110768
636.898	24.91269153
637.659	24.62858163
638.42	24.38183859
639.181	24.33102304
639.942	24.16880233
640.703	24.00161217
641.464	23.93579834
642.225	23.88830214
642.985	23.85778529
643.746	23.84976732
644.506	23.88374686
645.267	23.88474919
646.027	24.10799636
646.787	24.27248141
647.547	24.70946039
648.307	25.3362631
649.067	25.83941616
649.827	26.11298923
650.587	26.00728695
651.347	25.60988145
652.106	25.06018903
652.866	24.49761832
653.626	24.03843428
654.385	23.70472698
655.144	23.53040074
655.904	23.44658999
656.663	23.34509828
657.422	23.23004337
658.181	23.16348725
658.94	23.07646098
659.699	23.07161899
660.458	23.07306972
661.216	22.99223161
661.975	23.12744713
662.733	23.17316981
663.492	23.2768303
664.25	23.31979367
665.009	23.43979992
665.767	23.52823278
666.525	23.67728864
667.283	24.06124173
668.041	24.14240109
668.799	24.29935258
669.557	24.26788272
670.314	24.25237092
671.072	24.13478659
671.83	24.10370903
672.587	24.14456865
673.345	24.22455116
674.102	24.33681456
674.859	24.50875449
675.616	24.58042354
676.374	24.51995833
677.131	24.38057169
677.888	24.12934268
678.644	23.92140198
679.401	23.76621719
680.158	23.65569702
680.914	23.65206903
681.671	23.74874453
682.428	24.2984219
683.184	25.46413825
683.94	27.34592008
684.696	28.17518289
685.453	27.75808522
686.209	27.33563457
686.965	27.15216256
687.721	27.31184517
688.476	27.89948486
689.232	28.89082897
689.988	29.63304414
690.743	29.7757637
691.499	29.21530159
692.254	28.05028562
693.01	26.80311243
693.765	25.49283809
694.52	24.52727119
695.275	23.68507508
696.03	23.11067182
696.785	22.8496634
697.54	22.67959445
698.295	22.63836845
699.049	22.76251081
699.804	22.80679102
700.559	22.68840571
701.313	22.37613272
702.067	22.07174077
702.822	21.79991924
703.576	21.45968302
704.33	21.25330631
705.084	21.07060863
705.838	20.99274895
706.592	21.05082089
707.346	21.17395481
708.099	21.52585113
708.853	21.92403864
709.607	22.56669989
710.36	23.38992916
711.113	24.40491129
711.867	25.79002653
712.62	27.28056006
713.373	28.61180558
714.126	29.17847796
714.879	28.86312365
715.632	27.93709273
716.385	26.75475893
717.138	25.59209174
717.89	24.59308076
718.643	23.88130324
719.396	23.27275685
720.148	22.71356684
720.9	22.22440025
721.653	21.712798
722.405	21.3042068
723.157	20.99425523
723.909	20.89741864
724.661	20.81288413
725.413	20.90085671
726.165	21.08947681
726.916	21.36091368
727.668	21.82590965
728.419	22.55254206
729.171	23.6028039
729.922	24.36062682
730.673	24.42418635
731.425	24.27227019
732.176	24.53070812
732.927	25.7252551
733.678	26.55384609
734.429	26.56524655
735.18	25.91969557
735.93	23.90806264
736.681	21.95052114
737.431	20.62291127
738.182	20.04389833
738.932	19.83370916
739.683	20.09123141
740.433	20.61116135
741.183	21.20653409
741.933	21.47087361
742.683	21.1521081
743.433	20.26462408
744.183	19.29864172
744.933	18.24336109
745.682	17.24681941
746.432	16.41102545
747.181	15.61993986
747.931	15.08289842
748.68	14.70178759
749.429	14.54423605
750.179	14.54415459
750.928	14.49752451
751.677	14.16647957
752.426	13.64566674
753.174	13.1462046
753.923	12.73940833
754.672	12.45889828
755.42	12.00331463
756.169	11.59813182
756.917	11.17185832
757.666	10.80629266
758.414	10.5521444
759.162	10.34445792
759.91	10.29233861
760.658	10.24191285
761.406	10.2833019
762.154	10.24538635
762.902	10.16572841
763.65	10.35658321
764.397	12.11957569
765.145	17.08432519
765.892	18.85954786
766.64	15.39057959
767.387	11.50554534
768.134	9.08443024
768.881	7.69890259
769.628	6.88883285
770.375	6.28566608
771.122	5.82931115
771.869	5.47256356
772.616	5.18221607
773.362	4.8749085
774.109	4.63280185
774.855	4.39653527
775.602	4.16572448
776.348	3.94233254
777.094	3.74032475
777.841	3.61690362
778.587	3.48907625
779.333	3.34300841
780.078	3.22514244
780.824	3.13549863
781.57	3.09884396
782.316	3.04482364
783.061	3.01761553
783.807	2.94819663
784.552	2.84291869
785.297	2.72770692
786.043	2.63355919
786.788	2.53878749
787.533	2.47649137
788.278	2.47547057
789.023	2.57933576
789.768	2.93911164
790.512	3.23848811
791.257	3.1397354
792.002	2.81332707
792.746	2.52221067
793.491	2.28097814
794.235	2.13257591
794.979	2.02451351
795.723	1.99842045
796.467	2.00352952
797.211	2.10310234
797.955	2.2780764
798.699	2.35513769
799.443	2.28267115
800.187	2.15279929
800.93	2.0397511
801.674	1.92916148
802.417	1.83061896
803.16	1.75835079
803.904	1.68680763
804.647	1.62349705
805.39	1.59229666
806.133	1.55761738
806.876	1.58123327
807.619	1.58605429
808.361	1.61899849
809.104	1.63153297
809.847	1.60031592
810.589	1.5979856
811.332	1.55028528
812.074	1.52963248
812.816	1.49515344
813.558	1.47111213
814.301	1.42660217
815.043	1.40978883
815.784	1.39182168
816.526	1.39985489
817.268	1.42957546
818.01	1.49608851
818.751	1.57800346
819.493	1.68629566
820.234	1.84003562
820.976	2.15395701
821.717	2.82170338
822.458	3.9301251
823.199	6.88399854
823.94	14.60233152
824.681	19.45271301
825.422	15.58625649
826.163	10.06776945
826.903	6.73010937
827.644	5.67668602
828.385	6.80232872
829.125	8.50185917
829.865	7.20171989
830.606	4.77363075
831.346	3.11808737
832.086	2.30995401
832.826	1.94037285
833.566	1.87946135
834.306	2.18144539
835.046	3.30738228
835.785	4.65185301
836.525	4.20951968
837.264	2.99078337
838.004	2.08121745
838.743	1.58061559
839.482	1.32230199
840.222	1.20378725
840.961	1.31161351
841.7	1.90466288
842.439	2.17316168
843.177	1.70423348
843.916	1.23480959
844.655	0.9571364
845.394	0.83227962
846.132	0.75537859
846.87	0.70070116
847.609	0.66525961
848.347	0.64190286
849.085	0.626781
849.823	0.59841267
850.561	0.59675331
851.299	0.58975936
852.037	0.58351172
852.775	0.57537919
853.513	0.58184227
854.25	0.58858621
854.988	0.5940959
855.725	0.59255049
856.462	0.6015126
857.2	0.59582463
857.937	0.59590551
858.674	0.61504748
859.411	0.62930352
860.148	0.63752077
860.885	0.6463364
861.622	0.6458088
862.358	0.64665517
863.095	0.64785474
863.831	0.66503895
864.568	0.69322954
865.304	0.72421981
866.04	0.77062685
866.776	0.81905069
867.513	0.83691352
868.249	0.85190137
868.984	0.87074105
869.72	0.8881508
870.456	0.9062868
871.192	0.94456594
871.927	0.98936234
872.663	1.05370243
873.398	1.093766
874.134	1.15071022
874.869	1.22703373
875.604	1.28803237
876.339	1.3486092
877.074	1.40235707
877.809	1.48734917
878.544	1.62243502
879.278	1.7956312
880.013	2.15023176
880.748	2.86921039
881.482	4.57748449
882.217	8.76337528
882.951	14.28437829
883.685	15.31367979
884.419	12.2286847
885.153	8.68854642
885.887	6.14384875
886.621	4.53420078
887.355	3.63846392
888.089	3.07395321
888.822	2.69749908
889.556	2.39189768
890.289	2.16480283
891.023	2.08052998
891.756	2.07259884
892.489	2.15940467
893.222	2.26913993
893.955	2.56570442
894.688	3.24812778
895.421	4.75933542
896.154	6.707181
896.887	6.88628755
897.619	5.37426477
898.352	3.96669704
899.084	3.19470737
899.817	2.7911215
900.549	2.53297234
901.281	2.3430878
902.013	2.19910863
902.745	2.17579595
903.477	2.3747059
904.209	3.19424276
904.941	5.77010867
905.673	9.20525358
906.404	8.64794889
907.136	5.8873637
907.867	3.87265966
908.599	2.79989531
909.33	2.27357567
910.061	2.02094623
910.792	1.86886538
911.523	1.85526857
912.254	1.91201641
912.985	2.07996806
913.716	2.35805278
914.446	2.91948251
915.177	3.97668817
915.908	6.29669825
916.638	10.48782766
917.368	13.8962587
918.099	13.0742246
918.829	9.96722335
919.559	7.20905252
920.289	5.51139171
921.019	4.53474645
921.748	3.96336317
922.478	3.56013488
923.208	3.22205021
923.937	2.91341344
924.667	2.62765464
925.396	2.41782038
926.126	2.25382044
926.855	2.12317377
927.584	1.98583443
928.313	1.91756688
929.042	1.88877006
929.771	1.92246822
930.5	1.98747162
931.228	2.09288309
931.957	2.24460497
932.686	2.30287205
933.414	2.30078975
934.142	2.30271217
934.871	2.34120321
935.599	2.42865557
936.327	2.61071704
937.055	2.99606604
937.783	3.65578855
938.511	4.69739103
939.239	5.49883294
939.966	5.67066939
940.694	5.50246493
941.421	5.2892969
942.149	5.14200949
942.876	4.98070816
943.603	4.77997791
944.331	4.75281523
945.058	4.89648161
945.785	5.15321933
946.512	5.37076353
947.239	5.45668388
947.965	5.4454013
948.692	5.51999715
949.418	5.68010723
950.145	6.1336491
950.871	6.84679837
951.598	7.60378858
952.324	8.13410292
953.05	8.02375967
953.776	7.34288434
954.502	6.58151194
955.228	5.84694956
955.954	5.15850773
956.68	4.69295002
957.405	4.31420758
958.131	4.01267302
958.856	3.80674264
959.582	3.6245686
960.307	3.56852319
961.032	3.47709208
961.757	3.44849879
962.482	3.43760754
963.207	3.52720047
963.932	3.61520066
964.657	3.69167603
965.381	3.88196386
966.106	4.07536053
966.831	4.4286216
967.555	4.86117074
968.279	5.40427494
969.004	6.18375806
969.728	6.96872061
970.452	7.54237544
971.176	7.91147776
971.9	8.28605362
972.624	8.68206509
973.347	9.04322815
974.071	9.17909127
974.794	9.28534986
975.518	9.57475925
976.241	10.1746906
976.965	11.13831737
977.688	12.80500229
978.411	15.70447669
979.134	21.19345619
979.857	32.0268572
980.58	46.53623637
981.303	49.16332068
982.025	38.29700951
982.748	27.25265019
983.471	20.29899491
984.193	16.23192792
984.915	13.98965387
985.638	12.66450906
986.36	12.09308751
987.082	11.9549705
987.804	12.24585015
988.526	13.11179598
989.248	16.06295708
989.969	-29.80343945
990.691	-59.68618596
991.413	59.68623568
