Data from Reflection_11.txt Node
Date: Tue Sep 27 15:53:43 CEST 2022
User: Ocean Optics
Spectrometer: QEP02356
Trigger mode: 4
Integration Time (sec): 2.500000E0
Scans to average: 1
Electric dark correction enabled: true
Nonlinearity correction enabled: true
Boxcar width: 0
XAxis mode: Wavelengths
Number of Pixels in Spectrum: 1044
>>>>>Begin Spectral Data<<<<<
194.596	160.00003335
195.4	13.79307951
196.203	133.3333611
197.007	84.21054385
197.81	17.80916129
198.613	17.77403702
199.417	18.02054533
200.22	18.271075
201.023	17.34536098
201.826	18.48346256
202.629	16.91846931
203.432	18.01261208
204.235	17.22753025
205.038	17.04227175
205.84	17.66512351
206.643	17.87407269
207.445	17.4265955
208.248	17.36920128
209.05	18.41941067
209.853	18.82270203
210.655	18.55279374
211.457	19.89633537
212.259	18.53557868
213.061	17.48497051
213.863	18.56125873
214.665	17.24622628
215.467	18.38478638
216.269	17.62870503
217.07	17.81639521
217.872	17.86925217
218.674	17.41072901
219.475	18.11896937
220.277	17.33425991
221.078	16.67779314
221.879	16.8890616
222.68	17.0564509
223.481	16.53313542
224.283	16.78222689
225.084	16.33810799
225.884	16.03051934
226.685	16.66176656
227.486	16.33749023
228.287	16.05424718
229.087	16.17161704
229.888	16.09729348
230.688	15.96809618
231.489	16.1464346
232.289	15.95239394
233.089	15.93544847
233.89	15.93251143
234.69	16.14268052
235.49	15.83104167
236.29	15.7712124
237.09	15.70159748
237.89	15.61479592
238.689	15.88615775
239.489	15.8244581
240.289	15.52113346
241.088	15.84034442
241.888	15.52542216
242.687	15.83636647
243.486	15.4297247
244.286	15.51748797
245.085	15.46501215
245.884	15.79945629
246.683	15.73188842
247.482	16.03564547
248.281	15.8044407
249.08	15.6066696
249.878	15.73403492
250.677	15.95187358
251.476	15.90830451
252.274	16.12659033
253.073	16.01967771
253.871	15.82657474
254.67	15.92754756
255.468	16.1032197
256.266	16.19644214
257.064	16.27584064
257.862	16.01454405
258.66	16.19890764
259.458	16.19854023
260.256	16.20270914
261.054	16.18098835
261.851	16.17091759
262.649	15.99795176
263.446	16.37735274
264.244	16.47609993
265.041	16.54358328
265.839	16.36744926
266.636	16.48883472
267.433	16.39305773
268.23	16.3460262
269.027	16.67219551
269.824	16.66649224
270.621	16.46869307
271.418	16.68086299
272.215	16.56467956
273.011	16.4507364
273.808	16.77070385
274.604	16.61166591
275.401	16.64108357
276.197	16.87501391
276.994	16.8458918
277.79	16.8714558
278.586	16.98075149
279.382	17.12108044
280.178	17.17077724
280.974	17.12491857
281.77	17.37953564
282.566	17.47879487
283.361	17.48048978
284.157	17.75329518
284.953	17.51525539
285.748	17.59259906
286.544	17.64968656
287.339	17.65874531
288.134	17.68436504
288.93	17.59254363
289.725	17.77158698
290.52	17.90603038
291.315	18.24531969
292.11	18.27320568
292.905	18.10775478
293.699	18.4924333
294.494	18.42618319
295.289	18.51757688
296.083	18.31399841
296.878	18.53189943
297.672	18.93726481
298.467	18.64146973
299.261	18.36090975
300.055	18.47628754
300.849	18.6236164
301.643	18.53893085
302.437	18.89817142
303.231	18.89797982
304.025	18.74830109
304.819	18.70838674
305.612	18.81371632
306.406	18.90151162
307.2	18.90920448
307.993	18.773169
308.786	18.73163999
309.58	18.62156485
310.373	18.47744712
311.166	18.59641841
311.959	18.38961025
312.752	18.26870392
313.545	18.2385204
314.338	18.09374973
315.131	18.15627271
315.924	18.01098792
316.716	17.90093161
317.509	17.98466387
318.302	18.09472228
319.094	17.94252498
319.886	17.78126192
320.679	17.61120281
321.471	17.50240306
322.263	17.42507117
323.055	17.14084645
323.847	17.45319182
324.639	17.23313405
325.431	17.35782387
326.223	17.17122444
327.015	16.65457689
327.806	16.78871669
328.598	16.87569401
329.389	16.56300375
330.181	16.30672343
330.972	16.6563355
331.763	16.36083948
332.555	16.40141077
333.346	15.95722363
334.137	16.1801773
334.928	15.69984017
335.719	16.16646811
336.51	16.06242479
337.3	16.03622058
338.091	15.62992675
338.882	15.58407524
339.672	15.536478
340.463	15.58033565
341.253	15.29941736
342.043	15.49672929
342.834	15.49019023
343.624	15.32938897
344.414	15.53877704
345.204	15.24187217
345.994	15.076035
346.784	15.11676687
347.574	14.97580501
348.363	15.31712895
349.153	15.0841555
349.943	15.06216255
350.732	14.77589504
351.521	15.15862896
352.311	14.84608078
353.1	14.928718
353.889	14.91732282
354.678	14.87463351
355.468	14.88942841
356.257	15.07549706
357.045	14.94456939
357.834	14.86479544
358.623	14.7226832
359.412	14.67696559
360.2	14.84938871
360.989	14.94271515
361.777	14.8526475
362.566	14.79081763
363.354	14.80294454
364.142	14.62859285
364.931	14.83517613
365.719	14.76076449
366.507	14.75407645
367.295	14.81813882
368.083	15.29635739
368.87	14.86641459
369.658	14.97416103
370.446	15.16495126
371.233	15.08995252
372.021	15.10840807
372.808	15.12153553
373.596	15.12966663
374.383	15.37462592
375.17	15.43034603
375.957	15.08953458
376.745	15.47607915
377.532	15.36680922
378.318	15.40775382
379.105	15.41585865
379.892	15.42935726
380.679	15.53780727
381.465	15.68557058
382.252	15.51210372
383.038	15.58758577
383.825	15.82993038
384.611	15.71115041
385.397	15.42327953
386.184	15.59812388
386.97	15.47344662
387.756	15.43746628
388.542	15.51902711
389.328	15.43694141
390.113	15.43693964
390.899	15.5684144
391.685	15.57700966
392.47	15.47187842
393.256	15.7779392
394.041	15.52076753
394.827	15.43495063
395.612	15.50793162
396.397	15.51632065
397.182	15.64753247
397.967	15.53991416
398.752	15.57141949
399.537	15.35262176
400.322	15.42919192
401.107	15.50599491
401.891	15.46033387
402.676	15.1844207
403.461	15.39514598
404.245	15.27127713
405.029	15.23865163
405.814	15.33012882
406.598	15.11377582
407.382	14.98712886
408.166	14.99199169
408.95	15.13710608
409.734	15.14420711
410.518	15.10131737
411.302	14.92005988
412.086	14.82353075
412.869	14.76085306
413.653	14.96448073
414.436	14.95715256
415.22	15.02482764
416.003	14.95847088
416.786	14.8566675
417.569	14.76985009
418.353	14.85893232
419.136	14.81374424
419.919	14.80874936
420.701	14.635306
421.484	14.67421915
422.267	14.58029075
423.05	14.66783016
423.832	14.55898513
424.615	14.6402177
425.397	14.48008571
426.18	14.53401184
426.962	14.57651579
427.744	14.63867214
428.526	14.58178576
429.308	14.65308842
430.09	14.68272931
430.872	14.60128847
431.654	14.48659863
432.436	14.59778752
433.217	14.61803767
433.999	14.69288957
434.781	14.54901017
435.562	14.88679093
436.343	14.66733347
437.125	14.76020648
437.906	14.73396179
438.687	14.77207504
439.468	14.81882003
440.249	14.85176009
441.03	14.9205111
441.811	14.94883222
442.592	14.88411181
443.372	14.95660274
444.153	14.9981198
444.934	15.15645006
445.714	15.20081621
446.494	15.14954567
447.275	15.1800549
448.055	15.25864621
448.835	15.2813958
449.615	15.41549501
450.395	15.54073764
451.175	15.63491041
451.955	15.55513889
452.735	15.51647057
453.515	15.81510355
454.294	15.80156535
455.074	15.86107449
455.853	16.01073741
456.633	16.32758658
457.412	16.12492017
458.191	16.22875573
458.971	16.17373696
459.75	16.26375827
460.529	16.40715167
461.308	16.29715923
462.087	16.35466969
462.865	16.45071756
463.644	16.68955564
464.423	16.72280829
465.201	16.84556863
465.98	16.8108933
466.758	17.04011906
467.537	17.1303679
468.315	17.12109609
469.093	17.12792702
469.871	17.28652214
470.649	17.51881987
471.427	17.61616689
472.205	17.76812609
472.983	18.10829695
473.761	18.05932203
474.538	18.15234109
475.316	18.34879099
476.093	18.43414004
476.871	18.81736769
477.648	18.89717195
478.426	19.22278116
479.203	19.12649461
479.98	19.54996513
480.757	19.85525197
481.534	20.1300177
482.311	20.36444173
483.088	20.57785086
483.864	21.12948921
484.641	21.31786262
485.418	21.32898177
486.194	21.55275533
486.971	22.32094751
487.747	23.24625133
488.523	23.60853656
489.3	24.03887016
490.076	24.54946608
490.852	25.26394201
491.628	26.3880338
492.404	27.02674911
493.179	27.56465765
493.955	28.03556988
494.731	29.00888628
495.506	30.05790099
496.282	31.13413334
497.057	32.141709
497.833	32.69028126
498.608	33.93308386
499.383	34.81088765
500.159	35.75528589
500.934	36.90851313
501.709	37.72228566
502.483	39.03961462
503.258	39.87057102
504.033	40.79606618
504.808	42.33275416
505.582	42.9476881
506.357	43.98640065
507.131	44.69892735
507.906	45.65601403
508.68	46.60124612
509.454	47.3233081
510.228	48.29560885
511.002	49.26087084
511.776	49.8518224
512.55	50.72258369
513.324	51.37030866
514.098	52.1903627
514.872	52.82132802
515.645	53.43660968
516.419	54.2949731
517.192	54.96591448
517.966	55.17447323
518.739	55.61075986
519.512	55.79916411
520.285	55.88748978
521.058	56.1177086
521.831	57.07892746
522.604	57.68162376
523.377	57.65074061
524.15	57.87234449
524.923	58.00173968
525.695	59.02898141
526.468	58.65709344
527.24	58.52238996
528.012	58.81872131
528.785	58.99153466
529.557	58.87617513
530.329	58.3731065
531.101	58.23164048
531.873	58.84023553
532.645	58.97163514
533.417	59.3137132
534.189	59.46454215
534.96	58.89811047
535.732	58.92098946
536.503	59.01547192
537.275	59.11253819
538.046	59.09035179
538.818	59.14530802
539.589	58.84408984
540.36	59.15857529
541.131	58.64026852
541.902	58.40509927
542.673	57.66933104
543.444	57.41841944
544.214	57.19591166
544.985	57.0789335
545.756	56.79339379
546.526	56.49896942
547.297	56.2696602
548.067	56.26894551
548.837	55.97653335
549.608	55.35105764
550.378	55.37130711
551.148	55.2153826
551.918	54.74736794
552.688	54.47125893
553.457	54.18919827
554.227	53.34244599
554.997	53.40670512
555.766	52.89005574
556.536	52.91959779
557.305	52.56819607
558.075	52.29671918
558.844	51.62498229
559.613	50.95052684
560.382	51.06405958
561.151	50.56015666
561.92	50.05494428
562.689	49.79747416
563.458	49.36845215
564.227	49.20413915
564.995	48.84478589
565.764	48.46694983
566.532	48.28246543
567.301	47.51886291
568.069	46.80858721
568.837	46.74083422
569.606	46.34272149
570.374	45.95493827
571.142	45.91283965
571.91	45.64384107
572.678	45.1344252
573.445	44.31508865
574.213	44.32915608
574.981	43.97840485
575.748	43.17678902
576.516	42.88631737
577.283	42.54734692
578.05	42.37387162
578.818	41.93229507
579.585	41.77074995
580.352	41.16530559
581.119	40.50277094
581.886	40.10287255
582.653	39.70454163
583.419	39.4006268
584.186	38.97237272
584.953	38.18043839
585.719	37.74392728
586.486	37.7342389
587.252	37.12206022
588.018	36.79584724
588.785	36.17383125
589.551	35.5530635
590.317	34.88080194
591.083	34.36906531
591.849	34.20221507
592.615	33.61868473
593.38	33.17727091
594.146	32.70195518
594.912	32.62051818
595.677	32.09269318
596.443	31.45562796
597.208	30.98680018
597.973	30.56571532
598.738	30.11710309
599.504	29.95399338
600.269	29.50900722
601.034	29.37426352
601.798	29.16903074
602.563	28.84375878
603.328	28.33222072
604.093	27.8803518
604.857	27.66197142
605.622	27.312957
606.386	27.04194704
607.151	26.74913429
607.915	26.53377587
608.679	26.38049285
609.443	26.37896361
610.207	25.8926699
610.971	25.67709771
611.735	25.48487233
612.499	25.48098688
613.262	25.40622062
614.026	25.28853279
614.79	24.98070095
615.553	25.19176593
616.316	25.18998011
617.08	25.00338495
617.843	24.46566447
618.606	24.50466942
619.369	24.32570284
620.132	24.38601818
620.895	24.15935938
621.658	24.2575993
622.421	24.24178686
623.183	24.44983208
623.946	24.16023365
624.709	23.99555576
625.471	23.59288267
626.233	23.79016928
626.996	23.44227783
627.758	23.48455857
628.52	23.35783521
629.282	23.46999908
630.044	23.56203268
630.806	23.36181654
631.568	23.51324659
632.329	23.41435464
633.091	23.17542138
633.853	23.13413825
634.614	23.2116288
635.376	23.04783042
636.137	22.91829635
636.898	22.76273932
637.659	22.90434808
638.42	23.06480531
639.181	22.7602542
639.942	22.62921574
640.703	22.48853148
641.464	22.44124536
642.225	22.45647691
642.985	22.46563685
643.746	22.24010481
644.506	22.26184044
645.267	22.38724885
646.027	22.02368161
646.787	22.17853567
647.547	22.04437936
648.307	22.09057754
649.067	22.12099983
649.827	21.94511973
650.587	22.01048862
651.347	22.09310084
652.106	21.8171961
652.866	21.78272953
653.626	21.88966367
654.385	21.85560528
655.144	21.97349467
655.904	22.18259248
656.663	22.05389764
657.422	22.22488013
658.181	22.30578406
658.94	22.23861348
659.699	22.46305656
660.458	22.21879409
661.216	22.25736456
661.975	22.41974325
662.733	22.35770914
663.492	22.50161568
664.25	22.5096598
665.009	22.66920713
665.767	22.78150491
666.525	22.91595591
667.283	23.14933086
668.041	23.16941346
668.799	23.39570612
669.557	23.46146499
670.314	23.43655992
671.072	23.19381478
671.83	23.27212462
672.587	23.61363273
673.345	23.3054528
674.102	23.44902947
674.859	23.78287244
675.616	23.46653445
676.374	23.88333967
677.131	23.99004358
677.888	24.2153728
678.644	24.60266484
679.401	24.74282703
680.158	24.93535268
680.914	24.95019199
681.671	24.93578609
682.428	25.04838048
683.184	25.2490044
683.94	25.14346333
684.696	25.3082318
685.453	25.47213364
686.209	25.64003756
686.965	25.65879487
687.721	25.66203251
688.476	25.47453454
689.232	25.58985034
689.988	25.89373111
690.743	25.70603494
691.499	26.01991693
692.254	26.17549215
693.01	26.08218836
693.765	26.64684538
694.52	26.48192926
695.275	26.58871138
696.03	26.62849915
696.785	26.77228461
697.54	26.55547738
698.295	26.64807025
699.049	26.84202267
699.804	26.68640088
700.559	26.75865251
701.313	26.84711629
702.067	26.68896271
702.822	27.13984125
703.576	26.9692069
704.33	27.14711087
705.084	27.650926
705.838	27.31155798
706.592	27.54370657
707.346	27.60428913
708.099	27.53061722
708.853	27.32809945
709.607	27.08622705
710.36	26.89826901
711.113	26.71627198
711.867	26.63827431
712.62	26.40411219
713.373	26.38380036
714.126	26.35163832
714.879	26.51033636
715.632	26.62088721
716.385	26.67543584
717.138	26.63788576
717.89	26.68215817
718.643	26.65854542
719.396	26.63700433
720.148	26.7104198
720.9	26.69129198
721.653	26.62124956
722.405	27.02529694
723.157	26.56606206
723.909	26.90352604
724.661	27.09257698
725.413	26.7523249
726.165	26.56714062
726.916	27.10662039
727.668	27.15703214
728.419	27.11923359
729.171	27.21370174
729.922	27.11521167
730.673	27.33340611
731.425	27.37872048
732.176	27.57406923
732.927	27.37711463
733.678	27.37010515
734.429	27.94555218
735.18	28.1817205
735.93	28.09464346
736.681	28.38277141
737.431	28.88326826
738.182	28.5183217
738.932	28.78562634
739.683	28.64254414
740.433	28.77971643
741.183	28.77915895
741.933	28.97157877
742.683	29.20429317
743.433	29.80372741
744.183	29.72267432
744.933	30.00975083
745.682	30.61241076
746.432	30.77522992
747.181	31.12790551
747.931	30.97683347
748.68	31.59059027
749.429	31.71911515
750.179	31.77100101
750.928	32.20791364
751.677	32.18525504
752.426	32.59471874
753.174	32.96447812
753.923	33.27228844
754.672	33.41201681
755.42	33.10621391
756.169	33.22831593
756.917	33.6546037
757.666	33.9774007
758.414	33.80871813
759.162	34.11790754
759.91	34.28542795
760.658	34.34151104
761.406	34.64125351
762.154	34.76090899
762.902	34.95380105
763.65	35.06302708
764.397	35.4705466
765.145	35.04562581
765.892	35.22988929
766.64	35.92550904
767.387	36.16311456
768.134	36.38352719
768.881	36.41582512
769.628	36.60168473
770.375	36.95592563
771.122	36.52503053
771.869	37.18869731
772.616	36.91454602
773.362	37.31142823
774.109	36.88871826
774.855	37.18764013
775.602	37.65720954
776.348	37.57407397
777.094	38.04234993
777.841	37.69361567
778.587	37.7077594
779.333	37.56218827
780.078	37.80700483
780.824	38.26210521
781.57	38.00667656
782.316	38.25741029
783.061	38.27169815
783.807	38.46600667
784.552	38.46143534
785.297	38.47187314
786.043	38.81206096
786.788	39.30870423
787.533	39.21660015
788.278	39.37879071
789.023	39.2822348
789.768	39.70720394
790.512	39.47232783
791.257	39.76561587
792.002	40.33802466
792.746	40.8546069
793.491	40.53870196
794.235	40.97983384
794.979	40.71682923
795.723	40.98003331
796.467	41.19873824
797.211	41.09941909
797.955	41.18957331
798.699	40.96453394
799.443	41.12565622
800.187	42.20385677
800.93	42.51714111
801.674	42.56701164
802.417	43.45108469
803.16	42.99375658
803.904	43.48999619
804.647	44.06482116
805.39	43.9402642
806.133	44.53511715
806.876	44.60734188
807.619	44.46769991
808.361	45.34238265
809.104	45.49461052
809.847	45.70314763
810.589	46.19495802
811.332	46.39467308
812.074	46.77014421
812.816	47.15104086
813.558	48.00210938
814.301	47.96078645
815.043	48.34451449
815.784	48.81730186
816.526	49.13869776
817.268	49.40911845
818.01	49.93831486
818.751	50.03201525
819.493	50.34138982
820.234	51.09040908
820.976	51.35018404
821.717	51.33306545
822.458	51.52121577
823.199	52.50216937
823.94	51.00126707
824.681	50.57822897
825.422	51.94897722
826.163	53.45226963
826.903	54.38386795
827.644	54.49704053
828.385	53.97927335
829.125	52.58918609
829.865	53.45478977
830.606	54.6415501
831.346	55.93303044
832.086	56.75006296
832.826	56.66880735
833.566	56.95237599
834.306	57.63938742
835.046	56.69410065
835.785	55.87232539
836.525	56.90909658
837.264	57.96630202
838.004	59.24209093
838.743	59.53304622
839.482	59.51544496
840.222	60.2284202
840.961	60.40152086
841.7	59.93631325
842.439	59.86590057
843.177	60.70546119
843.916	61.40355771
844.655	61.55027262
845.394	62.52614178
846.132	62.22529716
846.87	62.3213471
847.609	62.2765661
848.347	63.56657778
849.085	63.20766405
849.823	63.28895573
850.561	63.86361127
851.299	63.8449723
852.037	64.09994902
852.775	64.09016904
853.513	64.83026359
854.25	64.03402395
854.988	64.605766
855.725	65.2897329
856.462	64.49250921
857.2	66.12763574
857.937	65.68717614
858.674	65.47299715
859.411	65.27849829
860.148	66.30023685
860.885	67.01452892
861.622	67.3784607
862.358	67.96338353
863.095	67.94448743
863.831	68.02605522
864.568	67.85876854
865.304	68.38634156
866.04	68.22557808
866.776	69.34279084
867.513	68.86712566
868.249	69.71834158
868.984	70.5116768
869.72	70.47851316
870.456	69.99478118
871.192	70.44076816
871.927	70.37810111
872.663	70.62475594
873.398	71.86975022
874.134	70.34903579
874.869	70.69713351
875.604	70.64765162
876.339	71.89076851
877.074	71.813048
877.809	72.19572049
878.544	72.29076641
879.278	73.28134578
880.013	74.3904767
880.748	74.56094249
881.482	73.75078437
882.217	71.60585896
882.951	69.43136517
883.685	70.06557009
884.419	72.4705944
885.153	74.13125623
885.887	75.23304843
886.621	75.38000731
887.355	75.14223122
888.089	74.44343991
888.822	75.0505345
889.556	75.23099753
890.289	75.89734403
891.023	75.38527153
891.756	74.76194835
892.489	75.31684806
893.222	75.26663998
893.955	75.4265065
894.688	75.33066544
895.421	74.52844563
896.154	73.26525181
896.887	73.33511461
897.619	74.79378216
898.352	75.96362825
899.084	76.03036418
899.817	75.68740222
900.549	76.44895746
901.281	76.75045116
902.013	77.31562321
902.745	76.90603325
903.477	77.22403734
904.209	76.55103483
904.941	75.55639121
905.673	74.03373413
906.404	75.20194438
907.136	76.82599955
907.867	77.54002503
908.599	77.95575409
909.33	77.82487887
910.061	78.37393521
910.792	78.42641458
911.523	78.58411127
912.254	78.91895248
912.985	78.31598132
913.716	78.59050178
914.446	78.1854787
915.177	78.30878904
915.908	77.93855771
916.638	76.67986451
917.368	75.20938967
918.099	75.51164587
918.829	77.02736986
919.559	77.72227252
920.289	78.92643379
921.019	78.44103366
921.748	78.23201024
922.478	77.48412918
923.208	78.08122931
923.937	79.03825935
924.667	79.66904245
925.396	79.67613304
926.126	79.03366549
926.855	78.64511769
927.584	78.79868688
928.313	79.60134229
929.042	78.53798654
929.771	78.8360957
930.5	79.67433938
931.228	78.49471536
931.957	78.58164994
932.686	79.23792686
933.414	78.81469017
934.142	80.69023751
934.871	80.20791261
935.599	80.69712136
936.327	80.82226914
937.055	79.67574074
937.783	77.85832899
938.511	76.94854591
939.239	76.93252303
939.966	77.63797734
940.694	79.46232778
941.421	79.54664626
942.149	79.88519902
942.876	79.9245084
943.603	80.4943938
944.331	78.95268684
945.058	79.31719611
945.785	78.2890457
946.512	78.87074221
947.239	78.50121371
947.965	80.30967527
948.692	79.82919057
949.418	80.11253292
950.145	79.33636948
950.871	79.57196462
951.598	78.4107976
952.324	77.8776945
953.05	78.42891574
953.776	79.2332056
954.502	80.55441069
955.228	80.50705386
955.954	82.12269032
956.68	81.87412213
957.405	81.40638611
958.131	82.09231741
958.856	81.94311668
959.582	81.9908216
960.307	82.0063916
961.032	81.33984729
961.757	82.03595283
962.482	82.35445303
963.207	83.00110752
963.932	82.53075134
964.657	81.85092713
965.381	82.87864993
966.106	82.89655503
966.831	82.88320999
967.555	81.45416976
968.279	80.94129747
969.004	80.6004801
969.728	79.54735074
970.452	80.63266018
971.176	81.30944525
971.9	81.47709527
972.624	82.09761331
973.347	81.42421309
974.071	82.3708573
974.794	81.97845427
975.518	81.90140701
976.241	82.79663256
976.965	82.15234656
977.688	82.99310936
978.411	82.64695268
979.134	82.8327491
979.857	82.03431808
980.58	79.82518985
981.303	79.56559505
982.025	80.31245543
982.748	81.94273632
983.471	82.50539158
984.193	83.5268308
984.915	83.24911969
985.638	83.68934202
986.36	83.67759246
987.082	83.35824213
987.804	82.69691908
988.526	84.80155694
989.248	86.95653985
989.969	-36.36367422
990.691	133.3333611
991.413	-399.99986119
