Data from Reflection_11.txt Node
Date: Thu Oct 13 20:34:05 CEST 2022
User: Ocean Optics
Spectrometer: QEP02356
Trigger mode: 4
Integration Time (sec): 1.400000E0
Scans to average: 1
Electric dark correction enabled: true
Nonlinearity correction enabled: true
Boxcar width: 0
XAxis mode: Wavelengths
Number of Pixels in Spectrum: 1044
>>>>>Begin Spectral Data<<<<<
194.596	-64.28566292
195.4	49.99998785
196.203	164.2857656
197.007	81.57892755
197.81	32.22311313
198.613	38.17834238
199.417	34.89423295
200.22	38.43075074
201.023	41.68105962
201.826	39.61573684
202.629	36.99048508
203.432	38.7686126
204.235	33.35872719
205.038	39.76104466
205.84	41.98877694
206.643	45.11660707
207.445	42.7138168
208.248	45.51315647
209.05	42.03315437
209.853	42.9456308
210.655	42.37531139
211.457	44.34334562
212.259	46.67209361
213.061	47.57719639
213.863	49.76251469
214.665	52.58062037
215.467	49.54751086
216.269	50.22552571
217.07	48.36022342
217.872	47.3979228
218.674	44.76958689
219.475	43.67086861
220.277	46.04590399
221.078	44.06814319
221.879	46.97489893
222.68	45.67971667
223.481	47.21303458
224.283	50.76961035
225.084	47.78739635
225.884	48.08068585
226.685	46.31137621
227.486	45.90011257
228.287	48.24480442
229.087	53.26870294
229.888	52.47359834
230.688	42.46317003
231.489	52.21544072
232.289	46.86513433
233.089	46.92454831
233.89	47.55344394
234.69	49.7601949
235.49	47.29539012
236.29	51.92222225
237.09	52.84740125
237.89	44.55767234
238.689	49.05022121
239.489	53.04955291
240.289	55.4997895
241.088	49.04107203
241.888	46.4511741
242.687	43.54982562
243.486	49.23311834
244.286	50.26552355
245.085	50.99028869
245.884	43.62679229
246.683	44.85333845
247.482	44.90581607
248.281	42.79412221
249.08	45.50700663
249.878	43.46536555
250.677	41.18951857
251.476	39.26298634
252.274	40.99714589
253.073	39.68041743
253.871	39.24258652
254.67	38.21996966
255.468	33.53060249
256.266	37.92986778
257.064	31.60430271
257.862	33.54365429
258.66	30.8776162
259.458	32.63342448
260.256	35.51938359
261.054	31.7957031
261.851	32.09067349
262.649	26.21992385
263.446	32.69592871
264.244	27.12289398
265.041	31.24361938
265.839	33.35472579
266.636	29.05763817
267.433	31.24426636
268.23	26.89893887
269.027	28.4140421
269.824	27.0178217
270.621	24.6110278
271.418	26.34107867
272.215	27.3672785
273.011	25.60641014
273.808	23.60056905
274.604	25.02573559
275.401	24.58517907
276.197	22.65968131
276.994	23.98404188
277.79	24.24525829
278.586	23.68981467
279.382	25.16428343
280.178	21.4120093
280.974	22.67892265
281.77	21.15481679
282.566	21.07008097
283.361	21.17442441
284.157	19.94133119
284.953	21.01347191
285.748	19.33978196
286.544	17.71090167
287.339	18.47906777
288.134	18.91594651
288.93	18.32504119
289.725	18.26530701
290.52	18.56847587
291.315	18.57408526
292.11	17.21663557
292.905	16.75453762
293.699	17.13376981
294.494	18.29415071
295.289	17.55011865
296.083	17.25410781
296.878	17.12577293
297.672	17.17356224
298.467	16.23719275
299.261	17.55616207
300.055	17.07317054
300.849	17.52795679
301.643	17.21198174
302.437	16.80135923
303.231	16.96730652
304.025	16.87815694
304.819	16.83710991
305.612	16.74018395
306.406	16.91100131
307.2	15.94207019
307.993	15.63566668
308.786	16.36965543
309.58	16.49309455
310.373	16.69491259
311.166	16.10879515
311.959	15.99083357
312.752	15.72054238
313.545	15.77082381
314.338	15.7072017
315.131	15.48746385
315.924	15.52652585
316.716	15.64202313
317.509	15.73139307
318.302	15.3548939
319.094	15.03071264
319.886	15.29802201
320.679	15.3782837
321.471	15.10542561
322.263	15.5108888
323.055	15.33456069
323.847	15.33794238
324.639	15.0924271
325.431	15.29104074
326.223	15.12423775
327.015	15.08361159
327.806	15.14752183
328.598	15.20583375
329.389	15.12381748
330.181	15.10932424
330.972	15.30803561
331.763	14.87312153
332.555	15.08873942
333.346	15.0301351
334.137	15.03560127
334.928	15.15537938
335.719	15.04050152
336.51	14.82926518
337.3	14.91734892
338.091	14.87498132
338.882	15.13341113
339.672	14.91283161
340.463	14.86767758
341.253	14.8582097
342.043	14.61244048
342.834	14.75718832
343.624	14.69674352
344.414	14.72301317
345.204	14.53036538
345.994	14.57141806
346.784	14.4528211
347.574	14.43036441
348.363	14.44253289
349.153	14.41331003
349.943	14.44873386
350.732	14.29593922
351.521	14.45983059
352.311	14.48009065
353.1	14.21792305
353.889	14.20445165
354.678	14.28557915
355.468	13.91027591
356.257	14.121339
357.045	14.36833111
357.834	14.11150189
358.623	14.36908748
359.412	14.28297576
360.2	14.19514542
360.989	14.19699821
361.777	14.18212367
362.566	14.20027503
363.354	14.16144023
364.142	14.46684996
364.931	14.18940114
365.719	14.02582798
366.507	14.30901629
367.295	14.13080273
368.083	14.14637007
368.87	14.27591606
369.658	14.38867183
370.446	14.2214429
371.233	14.33286082
372.021	14.38084363
372.808	14.51065142
373.596	14.68047514
374.383	14.39336274
375.17	14.57959357
375.957	14.6100836
376.745	14.7463277
377.532	14.75613379
378.318	14.81359994
379.105	14.8535326
379.892	14.72281901
380.679	15.0649388
381.465	14.94621035
382.252	14.98743503
383.038	15.12847919
383.825	15.0855778
384.611	15.17612988
385.397	15.27103261
386.184	15.31036924
386.97	15.24832872
387.756	15.34713739
388.542	15.40623611
389.328	15.22781804
390.113	15.38107749
390.899	15.40992613
391.685	15.50466827
392.47	15.47508223
393.256	15.35824931
394.041	15.49377602
394.827	15.49447553
395.612	15.48059515
396.397	15.46632581
397.182	15.54919407
397.967	15.63634518
398.752	15.70607517
399.537	15.71409422
400.322	15.63760584
401.107	15.6550924
401.891	15.55917252
402.676	15.7638928
403.461	15.67824941
404.245	15.79169861
405.029	15.71754135
405.814	15.8076457
406.598	15.79957977
407.382	15.80102115
408.166	15.72671798
408.95	15.75840065
409.734	15.65613483
410.518	15.70473682
411.302	15.76526105
412.086	15.80466545
412.869	15.7550857
413.653	16.02943827
414.436	15.91543161
415.22	15.97968286
416.003	16.01894312
416.786	15.89466032
417.569	16.04052798
418.353	15.93633729
419.136	16.0576734
419.919	16.02241652
420.701	16.02644284
421.484	16.12116262
422.267	16.03279461
423.05	16.07090602
423.832	16.20508547
424.615	16.26039779
425.397	16.2763061
426.18	16.25732233
426.962	16.23071954
427.744	16.37274319
428.526	16.44383721
429.308	16.5450504
430.09	16.44205993
430.872	16.62028843
431.654	16.55906194
432.436	16.67983758
433.217	16.71390357
433.999	16.64359162
434.781	16.79428664
435.562	16.86279678
436.343	16.86970401
437.125	16.88612561
437.906	17.06201842
438.687	17.08089971
439.468	17.21632207
440.249	17.15780555
441.03	17.30911057
441.811	17.31299247
442.592	17.32717038
443.372	17.52460105
444.153	17.47712173
444.934	17.6738801
445.714	17.80834982
446.494	18.00693198
447.275	17.99537211
448.055	18.247087
448.835	18.28686522
449.615	18.36729504
450.395	18.54673206
451.175	18.60844963
451.955	18.84347514
452.735	18.92747242
453.515	19.0634909
454.294	19.12890553
455.074	19.25445565
455.853	19.55709106
456.633	19.68695896
457.412	19.79697241
458.191	19.88037276
458.971	19.95882672
459.75	20.27094414
460.529	20.39759039
461.308	20.56825961
462.087	20.56711407
462.865	20.93977874
463.644	21.01180919
464.423	21.07330767
465.201	21.2178985
465.98	21.51732909
466.758	21.72581474
467.537	21.82531828
468.315	21.94215204
469.093	21.93460868
469.871	22.16164355
470.649	22.3196088
471.427	22.46664643
472.205	22.76513255
472.983	22.98858987
473.761	23.2000187
474.538	23.38745286
475.316	23.67285811
476.093	23.92458847
476.871	24.09070953
477.648	24.53785013
478.426	24.87828143
479.203	25.09259985
479.98	25.51627255
480.757	25.91604279
481.534	26.33421901
482.311	26.72353391
483.088	27.03205995
483.864	27.43635134
484.641	28.04786846
485.418	28.52204201
486.194	29.23151515
486.971	29.62433132
487.747	30.32169338
488.523	30.94604692
489.3	31.6790161
490.076	32.35254867
490.852	33.20610824
491.628	33.78622929
492.404	34.68620943
493.179	35.37558666
493.955	36.1687243
494.731	36.8730493
495.506	37.73578456
496.282	38.72883513
497.057	39.46009139
497.833	40.33298157
498.608	41.18583889
499.383	41.8364351
500.159	42.79353206
500.934	43.44499289
501.709	44.21492224
502.483	44.88550367
503.258	45.5379553
504.033	45.9503279
504.808	46.91630463
505.582	47.29451472
506.357	47.83026857
507.131	48.26040672
507.906	48.75329099
508.68	48.9834008
509.454	49.48206349
510.228	49.91641966
511.002	49.96979123
511.776	50.35587932
512.55	50.45546467
513.324	50.70104482
514.098	50.72120274
514.872	50.82852563
515.645	51.08853598
516.419	51.26701156
517.192	51.25369043
517.966	51.21969279
518.739	51.23613496
519.512	51.32613248
520.285	51.10098857
521.058	51.06956138
521.831	50.96792215
522.604	51.08225301
523.377	50.94594152
524.15	51.03537897
524.923	50.73306635
525.695	50.69389531
526.468	50.58452885
527.24	50.3764016
528.012	50.15995632
528.785	49.96203422
529.557	49.67045088
530.329	49.53213695
531.101	49.30275805
531.873	49.0040519
532.645	48.8747049
533.417	48.77305341
534.189	48.63447559
534.96	48.11773462
535.732	47.87939007
536.503	47.5140641
537.275	47.18689678
538.046	46.95914889
538.818	46.73057796
539.589	46.14212261
540.36	46.0534833
541.131	45.78058771
541.902	45.36626375
542.673	45.01940844
543.444	44.63817221
544.214	44.03301853
544.985	43.94225764
545.756	43.58205441
546.526	43.11369777
547.297	42.54170512
548.067	42.26870027
548.837	41.92264455
549.608	41.44995316
550.378	41.08741787
551.148	40.7459628
551.918	40.31826566
552.688	39.80932294
553.457	39.6082274
554.227	39.02584351
554.997	38.47992965
555.766	38.06126638
556.536	37.71158256
557.305	37.25361184
558.075	36.94681356
558.844	36.33378748
559.613	36.11182393
560.382	35.6564641
561.151	35.07600698
561.92	34.96924003
562.689	34.42526962
563.458	34.05005569
564.227	33.70878854
564.995	33.2030922
565.764	32.77668242
566.532	32.23704533
567.301	31.83550495
568.069	31.47484031
568.837	31.0752771
569.606	30.74055104
570.374	30.30906317
571.142	30.01962251
571.91	29.65036108
572.678	29.14891758
573.445	28.74000679
574.213	28.35056862
574.981	27.87579846
575.748	27.54757391
576.516	27.17625188
577.283	26.73728059
578.05	26.44977544
578.818	26.02389627
579.585	25.64220102
580.352	25.21248165
581.119	24.88216325
581.886	24.44546521
582.653	24.02531917
583.419	23.63771322
584.186	23.28674102
584.953	22.92707984
585.719	22.46897656
586.486	22.00649689
587.252	21.58783195
588.018	21.26882565
588.785	20.96155568
589.551	20.5862826
590.317	20.21836144
591.083	19.81911477
591.849	19.36929999
592.615	19.14588679
593.38	18.71744214
594.146	18.32627436
594.912	17.97722605
595.677	17.65848171
596.443	17.3196419
597.208	17.06473172
597.973	16.77445068
598.738	16.56848898
599.504	16.17558073
600.269	15.87098203
601.034	15.69873402
601.798	15.49350824
602.563	15.27907448
603.328	15.09030217
604.093	14.92656012
604.857	14.65253795
605.622	14.48964229
606.386	14.30457441
607.151	14.18816871
607.915	13.94348217
608.679	13.80668919
609.443	13.70467186
610.207	13.60972685
610.971	13.44112914
611.735	13.37640962
612.499	13.26001259
613.262	13.19105773
614.026	13.10647575
614.79	12.96093482
615.553	12.80321707
616.316	12.79883146
617.08	12.75568003
617.843	12.63692773
618.606	12.54847229
619.369	12.58215742
620.132	12.4886511
620.895	12.37522581
621.658	12.36506982
622.421	12.30608651
623.183	12.28841197
623.946	12.27085562
624.709	12.28571596
625.471	12.14335081
626.233	12.22109278
626.996	12.14091988
627.758	12.17537127
628.52	12.06337361
629.282	12.04588115
630.044	12.00660325
630.806	11.94349846
631.568	11.97470892
632.329	11.95387804
633.091	11.91337822
633.853	11.84870132
634.614	11.80973466
635.376	11.80214977
636.137	11.83217951
636.898	11.70103716
637.659	11.72451407
638.42	11.72412466
639.181	11.68044351
639.942	11.67547449
640.703	11.6078698
641.464	11.5984126
642.225	11.58425793
642.985	11.542932
643.746	11.56757055
644.506	11.54933243
645.267	11.53060379
646.027	11.43912419
646.787	11.48257641
647.547	11.45443684
648.307	11.37339739
649.067	11.47841197
649.827	11.44218314
650.587	11.37086381
651.347	11.4391079
652.106	11.38846234
652.866	11.41270339
653.626	11.41929022
654.385	11.41746108
655.144	11.49171686
655.904	11.49075325
656.663	11.5805071
657.422	11.58688806
658.181	11.60242655
658.94	11.6942542
659.699	11.74185618
660.458	11.71829008
661.216	11.75369592
661.975	11.80197643
662.733	11.92766138
663.492	11.88052664
664.25	12.03237674
665.009	12.10573554
665.767	12.18293052
666.525	12.25553557
667.283	12.37627947
668.041	12.35458593
668.799	12.4639765
669.557	12.50568057
670.314	12.58932627
671.072	12.72859451
671.83	12.79205195
672.587	12.84694884
673.345	12.93845284
674.102	13.11367072
674.859	13.16298926
675.616	13.25679492
676.374	13.27633063
677.131	13.2950821
677.888	13.38753677
678.644	13.54691432
679.401	13.62650097
680.158	13.63832014
680.914	13.80757881
681.671	13.80119682
682.428	13.96957674
683.184	14.0032583
683.94	14.07064048
684.696	14.23227026
685.453	14.23869566
686.209	14.33207591
686.965	14.35126559
687.721	14.36951408
688.476	14.49335439
689.232	14.58631434
689.988	14.70168066
690.743	14.73422537
691.499	14.75698267
692.254	14.89429969
693.01	15.00612559
693.765	15.00754939
694.52	15.05223042
695.275	15.08395922
696.03	15.19690177
696.785	15.26798825
697.54	15.26264028
698.295	15.45195141
699.049	15.43551662
699.804	15.43381179
700.559	15.56067868
701.313	15.54400193
702.067	15.45829404
702.822	15.51838757
703.576	15.69644622
704.33	15.72982132
705.084	15.58503325
705.838	15.64942056
706.592	15.52833171
707.346	15.55005066
708.099	15.64941786
708.853	15.62973962
709.607	15.60490379
710.36	15.46181714
711.113	15.45991651
711.867	15.53092917
712.62	15.45520096
713.373	15.4810381
714.126	15.30942426
714.879	15.31547834
715.632	15.33979101
716.385	15.28215025
717.138	15.24569344
717.89	15.21833495
718.643	15.19415017
719.396	15.18775219
720.148	15.26840362
720.9	15.18708828
721.653	15.12685191
722.405	15.06195547
723.157	15.07941884
723.909	15.1413075
724.661	15.02603744
725.413	15.05752587
726.165	15.06928599
726.916	15.07361658
727.668	15.10581719
728.419	15.12572442
729.171	15.17768898
729.922	15.16321924
730.673	15.20754698
731.425	15.20037573
732.176	15.27178913
732.927	15.35235819
733.678	15.43535872
734.429	15.44593453
735.18	15.53494162
735.93	15.64774045
736.681	15.8439766
737.431	15.89766567
738.182	16.04441495
738.932	16.09489676
739.683	16.28678384
740.433	16.39938945
741.183	16.50600761
741.933	16.57279597
742.683	16.71329791
743.433	16.76925503
744.183	17.03957553
744.933	17.13151812
745.682	17.13616774
746.432	17.3726117
747.181	17.65965435
747.931	17.88487479
748.68	17.91080557
749.429	18.06896104
750.179	18.40162648
750.928	18.43845984
751.677	18.68145096
752.426	18.96684842
753.174	18.98904275
753.923	19.23849402
754.672	19.35859691
755.42	19.67291402
756.169	19.65106536
756.917	19.75970836
757.666	19.65195285
758.414	20.16263107
759.162	20.19754845
759.91	20.43804529
760.658	20.65062787
761.406	20.71416668
762.154	20.9651098
762.902	20.90544754
763.65	21.04439858
764.397	21.33913343
765.145	21.45714759
765.892	21.37813847
766.64	21.34464978
767.387	21.54640807
768.134	21.6088071
768.881	21.81510544
769.628	21.85011533
770.375	22.09310757
771.122	22.02972096
771.869	22.01322641
772.616	21.90957204
773.362	22.17227273
774.109	22.20394527
774.855	22.19952156
775.602	22.53075747
776.348	22.98543439
777.094	22.66300197
777.841	22.89209789
778.587	22.63169577
779.333	22.70973396
780.078	22.83452107
780.824	22.88146158
781.57	23.0536481
782.316	22.94801908
783.061	23.12719142
783.807	23.42801782
784.552	23.20016696
785.297	23.3455044
786.043	23.2822068
786.788	23.52080305
787.533	23.71691439
788.278	23.60663985
789.023	24.14756796
789.768	24.10071656
790.512	24.34114751
791.257	24.3191298
792.002	24.28897678
792.746	24.67802868
793.491	24.86792343
794.235	25.27656534
794.979	25.32377631
795.723	25.77624256
796.467	25.80488094
797.211	25.76659396
797.955	26.03558011
798.699	26.6841796
799.443	26.46629903
800.187	26.74222619
800.93	26.85723014
801.674	27.71884858
802.417	27.28821949
803.16	27.82603808
803.904	27.63517321
804.647	28.24744136
805.39	28.46064247
806.133	29.21417038
806.876	29.34893882
807.619	30.46942185
808.361	30.00279734
809.104	30.07811043
809.847	30.41775283
810.589	30.79744661
811.332	31.15439381
812.074	31.74570924
812.816	31.89039391
813.558	32.06553261
814.301	32.58503256
815.043	32.34366728
815.784	33.59691732
816.526	33.5907347
817.268	33.42921119
818.01	34.26022401
818.751	34.72459578
819.493	34.63292346
820.234	34.79027787
820.976	35.6055446
821.717	35.64807
822.458	35.85425843
823.199	36.95984337
823.94	37.23456728
824.681	36.56672588
825.422	36.64118812
826.163	36.91348785
826.903	37.1680044
827.644	37.76318631
828.385	38.69652588
829.125	39.22379749
829.865	38.71361825
830.606	38.42572313
831.346	39.37256029
832.086	39.78202182
832.826	39.56765184
833.566	40.60889414
834.306	40.97404918
835.046	41.83154308
835.785	42.17843152
836.525	41.56914902
837.264	41.86810082
838.004	42.31143466
838.743	42.98032056
839.482	42.98124595
840.222	43.73236819
840.961	44.06030799
841.7	44.9637279
842.439	44.5812351
843.177	44.0969352
843.916	44.5728551
844.655	45.40461461
845.394	46.19987172
846.132	46.92198082
846.87	47.2744583
847.609	47.38100432
848.347	47.55555083
849.085	46.83172
849.823	47.38234304
850.561	49.28190859
851.299	49.84177423
852.037	49.23006837
852.775	49.37685684
853.513	48.87400326
854.25	49.38573225
854.988	49.95626264
855.725	48.57487841
856.462	51.14521878
857.2	50.37323418
857.937	51.09691485
858.674	52.32664076
859.411	51.88492787
860.148	50.87727359
860.885	52.8723014
861.622	52.19673586
862.358	53.62052137
863.095	55.29841608
863.831	54.62033527
864.568	54.6686166
865.304	55.33108926
866.04	55.01403705
866.776	56.10456801
867.513	56.13376421
868.249	55.86973406
868.984	56.02596049
869.72	55.73072859
870.456	56.71067617
871.192	56.21153265
871.927	57.23835231
872.663	57.53543085
873.398	57.82003404
874.134	57.75783213
874.869	59.61941333
875.604	58.48559557
876.339	59.10830944
877.074	59.1175854
877.809	59.44350474
878.544	59.75011877
879.278	59.74263202
880.013	61.16128452
880.748	60.92588713
881.482	61.57440592
882.217	61.65421814
882.951	61.40744096
883.685	61.18345794
884.419	61.05783142
885.153	61.14285012
885.887	61.69603743
886.621	61.42894331
887.355	62.10036454
888.089	61.45294525
888.822	62.4865359
889.556	61.79775706
890.289	62.50486001
891.023	62.75763875
891.756	62.54117356
892.489	63.0406567
893.222	63.21345829
893.955	63.35147378
894.688	64.56412386
895.421	64.2160821
896.154	64.24964325
896.887	64.33344366
897.619	63.56385946
898.352	63.86469607
899.084	64.13062136
899.817	64.73075638
900.549	64.18004037
901.281	65.03500142
902.013	65.60400054
902.745	65.06894867
903.477	65.37733202
904.209	66.64201701
904.941	66.53118689
905.673	66.51370604
906.404	65.86855097
907.136	65.83137237
907.867	65.1256461
908.599	65.94024637
909.33	66.8989863
910.061	67.07053527
910.792	66.17997826
911.523	66.58193581
912.254	65.4567988
912.985	67.35373175
913.716	67.77546777
914.446	67.10832108
915.177	68.18466304
915.908	68.72117024
916.638	68.81316332
917.368	67.83841608
918.099	67.50221572
918.829	67.723646
919.559	67.85782899
920.289	67.71936479
921.019	67.6830793
921.748	67.82135647
922.478	67.98395921
923.208	68.41107421
923.937	68.92186481
924.667	67.38906303
925.396	68.25720405
926.126	68.65016381
926.855	68.016305
927.584	69.03043843
928.313	68.71435079
929.042	69.4844284
929.771	69.16573769
930.5	68.85616228
931.228	70.33847116
931.957	68.80672548
932.686	69.95315952
933.414	69.13561932
934.142	69.04187362
934.871	69.83145461
935.599	70.40932396
936.327	69.07779311
937.055	69.59763962
937.783	70.27117149
938.511	71.02449803
939.239	69.45292685
939.966	69.23055292
940.694	69.88391921
941.421	69.7390353
942.149	69.05019134
942.876	70.27952546
943.603	70.63594583
944.331	70.52710366
945.058	70.74738094
945.785	70.32565482
946.512	69.75903147
947.239	70.76604657
947.965	70.41452242
948.692	70.68231181
949.418	71.16395988
950.145	70.5790285
950.871	70.92306272
951.598	71.46902785
952.324	71.29952333
953.05	71.37364491
953.776	70.40414046
954.502	71.0626089
955.228	70.82388506
955.954	71.61231973
956.68	70.65680978
957.405	71.50695996
958.131	70.91524383
958.856	71.75020739
959.582	71.37399023
960.307	72.79335092
961.032	72.08805545
961.757	71.51317221
962.482	71.94348564
963.207	72.9336577
963.932	71.23673818
964.657	71.91270147
965.381	72.40805711
966.106	72.61344946
966.831	71.61332865
967.555	72.00563716
968.279	71.66549591
969.004	72.20278012
969.728	72.80227677
970.452	72.4499987
971.176	72.6763972
971.9	72.89979987
972.624	73.41001705
973.347	72.91155794
974.071	73.37336324
974.794	72.54172274
975.518	73.03185521
976.241	72.79160151
976.965	72.71880722
977.688	72.79004969
978.411	73.71308985
979.134	73.52268998
979.857	73.90102326
980.58	73.8941285
981.303	73.13098495
982.025	72.7871315
982.748	72.95757377
983.471	73.18811442
984.193	72.94620859
984.915	73.1730315
985.638	72.90836087
986.36	72.93225014
987.082	72.7061331
987.804	73.41865299
988.526	73.67494451
989.248	55.40546887
989.969	26.4706112
990.691	49.99997397
991.413	849.99955761
