Data from Reflection_21.txt Node
Date: Thu Oct 13 20:39:18 CEST 2022
User: Ocean Optics
Spectrometer: QEP02356
Trigger mode: 4
Integration Time (sec): 1.400000E0
Scans to average: 1
Electric dark correction enabled: true
Nonlinearity correction enabled: true
Boxcar width: 0
XAxis mode: Wavelengths
Number of Pixels in Spectrum: 1044
>>>>>Begin Spectral Data<<<<<
194.596	85.71427976
195.4	257.14305348
196.203	142.8571726
197.007	10.52630337
197.81	55.72750289
198.613	52.87462204
199.417	56.15868231
200.22	51.90188054
201.023	56.64107108
201.826	53.26736904
202.629	54.16150894
203.432	52.73122471
204.235	51.68002693
205.038	59.84104883
205.84	52.08125437
206.643	54.00399281
207.445	52.09305974
208.248	58.62673451
209.05	50.73172711
209.853	54.00399335
210.655	54.8599566
211.457	57.31996388
212.259	55.88730031
213.061	59.88017449
213.863	60.4554024
214.665	61.666124
215.467	57.89026547
216.269	56.66446822
217.07	60.25934236
217.872	55.62276072
218.674	54.46043613
219.475	54.63219343
220.277	59.086658
221.078	52.65901251
221.879	56.24348317
222.68	55.46362433
223.481	55.00770228
224.283	59.15624909
225.084	50.9239302
225.884	56.4240018
226.685	54.85995651
227.486	57.1787421
228.287	54.45558589
229.087	55.77744096
229.888	58.59222542
230.688	54.4184344
231.489	56.8279634
232.289	56.69623648
233.089	55.14939083
233.89	56.06015884
234.69	54.28370689
235.49	55.35195903
236.29	57.38437785
237.09	57.18114254
237.89	55.62276063
238.689	56.83854193
239.489	56.50791558
240.289	56.12979652
241.088	54.98343541
241.888	48.5221863
242.687	47.5522362
243.486	57.10761137
244.286	58.91805789
245.085	51.67013937
245.884	54.98138286
246.683	51.22400874
247.482	50.19245479
248.281	53.28320562
249.08	52.1861667
249.878	50.98172812
250.677	50.46859827
251.476	50.2026442
252.274	46.11314171
253.073	46.02634878
253.871	51.03574858
254.67	50.21162414
255.468	42.61568606
256.266	42.52524979
257.064	41.78841573
257.862	44.91058355
258.66	42.7635717
259.458	43.14915985
260.256	47.69178326
261.054	39.27306284
261.851	46.94836498
262.649	39.24040293
263.446	42.27579286
264.244	38.6237334
265.041	43.60677043
265.839	44.63351929
266.636	43.039464
267.433	42.71337842
268.23	43.34589562
269.027	39.15501378
269.824	38.2335386
270.621	38.5031525
271.418	42.67105586
272.215	38.83097193
273.011	42.40254048
273.808	40.07774483
274.604	41.95296721
275.401	39.09042177
276.197	40.3395509
276.994	40.70443453
277.79	37.70576923
278.586	37.4005961
279.382	38.55825922
280.178	36.190545
280.974	36.55649385
281.77	36.00512464
282.566	37.1414723
283.361	38.00831707
284.157	36.73434894
284.953	34.32627965
285.748	32.89023314
286.544	33.3495179
287.339	33.34901642
288.134	33.54290475
288.93	31.42792945
289.725	33.511511
290.52	32.60341395
291.315	31.95261769
292.11	32.27155917
292.905	32.86898839
293.699	32.76206084
294.494	32.85402928
295.289	32.34531735
296.083	32.51231768
296.878	32.13481078
297.672	32.41948463
298.467	31.91092309
299.261	33.78706567
300.055	32.57475875
300.849	33.55212023
301.643	33.51904894
302.437	33.51595028
303.231	33.7012538
304.025	34.72262626
304.819	35.20266929
305.612	36.30733361
306.406	35.34658885
307.2	35.3435406
307.993	35.26641273
308.786	35.59703299
309.58	36.11860403
310.373	36.57038287
311.166	36.65033088
311.959	36.59880324
312.752	37.18409049
313.545	37.4108798
314.338	37.21408796
315.131	37.32861612
315.924	37.54365191
316.716	37.71050229
317.509	38.2587094
318.302	38.63333772
319.094	38.70993991
319.886	39.02720563
320.679	39.38515429
321.471	38.88891773
322.263	39.81166344
323.055	39.85950824
323.847	40.3039776
324.639	39.75579754
325.431	40.56901905
326.223	40.87544842
327.015	40.64872819
327.806	41.32589994
328.598	41.18548907
329.389	41.00103318
330.181	41.70920499
330.972	42.24806893
331.763	41.76831649
332.555	42.38394283
333.346	41.8824854
334.137	41.96773349
334.928	42.10742812
335.719	42.75506999
336.51	42.6064929
337.3	42.54853637
338.091	42.77729734
338.882	43.0066427
339.672	43.16140309
340.463	42.85398137
341.253	43.42168291
342.043	43.52760972
342.834	43.72750196
343.624	43.71425279
344.414	44.0301006
345.204	43.74835014
345.994	43.96253851
346.784	43.85020227
347.574	44.11086659
348.363	44.32764022
349.153	44.27611949
349.943	44.50668438
350.732	44.40114391
351.521	44.98214805
352.311	45.05224937
353.1	45.10518672
353.889	44.79148896
354.678	44.87324493
355.468	45.23085026
356.257	45.263309
357.045	45.43156641
357.834	45.63102363
358.623	45.73941994
359.412	46.18038033
360.2	46.0003227
360.989	45.62614389
361.777	46.13506337
362.566	46.39678687
363.354	46.37946705
364.142	46.55933352
364.931	46.78207955
365.719	46.71327493
366.507	47.44219824
367.295	46.6583949
368.083	47.35678758
368.87	47.86992116
369.658	47.14251078
370.446	47.79687758
371.233	47.9653102
372.021	48.03010813
372.808	48.17000039
373.596	48.32979526
374.383	48.6498452
375.17	48.42685544
375.957	48.42764537
376.745	48.71014765
377.532	48.78607313
378.318	48.72183245
379.105	49.1388059
379.892	49.33580068
380.679	49.66985369
381.465	49.80607042
382.252	49.92869338
383.038	49.97261368
383.825	49.88821389
384.611	50.52163623
385.397	50.65603684
386.184	50.50685153
386.97	51.00602102
387.756	50.69771485
388.542	51.0928655
389.328	51.13894285
390.113	51.28178045
390.899	51.63740434
391.685	51.74395515
392.47	51.73966047
393.256	51.76935187
394.041	52.10524282
394.827	52.28170255
395.612	52.15521758
396.397	52.28817959
397.182	52.84618736
397.967	52.68496612
398.752	52.88338349
399.537	53.01259599
400.322	53.43021618
401.107	53.13043578
401.891	53.32916158
402.676	53.61507554
403.461	53.71285369
404.245	53.73936626
405.029	53.9915501
405.814	54.17750615
406.598	54.09468359
407.382	54.61763585
408.166	54.63758136
408.95	54.44848835
409.734	54.67609562
410.518	54.90529807
411.302	55.26706767
412.086	55.37696671
412.869	55.40283855
413.653	55.91340508
414.436	55.65045763
415.22	56.19575057
416.003	56.09573725
416.786	56.29302013
417.569	56.5271949
418.353	56.64701949
419.136	56.75086612
419.919	57.22314926
420.701	57.29747048
421.484	57.37088476
422.267	57.28686567
423.05	57.44812043
423.832	57.86999894
424.615	57.90092611
425.397	58.25729694
426.18	58.62996329
426.962	58.42565987
427.744	58.68893144
428.526	58.82223984
429.308	58.93910273
430.09	59.17580082
430.872	59.56377013
431.654	59.80774497
432.436	59.77170039
433.217	59.95741399
433.999	59.91659059
434.781	60.150481
435.562	60.42887602
436.343	60.54238381
437.125	61.12193371
437.906	60.96380722
438.687	61.23886928
439.468	61.31149154
440.249	61.68426172
441.03	61.51702209
441.811	61.50803477
442.592	61.68461168
443.372	62.04491754
444.153	62.16701176
444.934	62.0262951
445.714	62.1691231
446.494	62.30402497
447.275	62.33161338
448.055	62.2690436
448.835	62.40042467
449.615	62.8241029
450.395	62.72927836
451.175	62.73619513
451.955	62.45311299
452.735	62.71386922
453.515	62.78607279
454.294	62.38016115
455.074	62.48659449
455.853	62.28032065
456.633	62.40474381
457.412	62.11707047
458.191	62.19018303
458.971	62.21000503
459.75	61.96216711
460.529	61.73587911
461.308	61.89440581
462.087	61.85193081
462.865	61.60550773
463.644	61.30205303
464.423	61.13331507
465.201	60.72640457
465.98	60.64593317
466.758	60.55285781
467.537	60.37258505
468.315	60.21751256
469.093	59.65455219
469.871	59.23825937
470.649	58.93573192
471.427	58.58697368
472.205	58.15492068
472.983	57.90617988
473.761	57.67942627
474.538	57.38165486
475.316	56.83961875
476.093	56.31635422
476.871	56.0353715
477.648	55.65406082
478.426	55.28126291
479.203	54.68268069
479.98	54.2494392
480.757	54.02288515
481.534	53.73981746
482.311	53.34939269
483.088	52.65790505
483.864	52.18849832
484.641	51.61332005
485.418	51.38074308
486.194	50.76100591
486.971	50.31727791
487.747	49.84758667
488.523	49.30301346
489.3	48.74058727
490.076	48.20644311
490.852	47.72681343
491.628	47.29841865
492.404	46.82317382
493.179	46.27652647
493.955	45.76352346
494.731	45.25991692
495.506	44.79230585
496.282	44.43009863
497.057	43.98896446
497.833	43.30639238
498.608	42.97557039
499.383	42.45838875
500.159	41.97978208
500.934	41.59195323
501.709	41.16573746
502.483	40.67667085
503.258	40.14899052
504.033	39.77150739
504.808	39.26670432
505.582	38.87378067
506.357	38.51953317
507.131	38.03856883
507.906	37.68246133
508.68	37.27554121
509.454	36.71199212
510.228	36.39224597
511.002	36.02110562
511.776	35.60768189
512.55	35.28426982
513.324	34.91972744
514.098	34.46346544
514.872	34.12983762
515.645	33.88949028
516.419	33.63244249
517.192	33.1679982
517.966	32.8963556
518.739	32.50020876
519.512	32.21265119
520.285	31.96753519
521.058	31.62520527
521.831	31.27226077
522.604	30.96904256
523.377	30.75734438
524.15	30.48412371
524.923	30.14983771
525.695	30.07700318
526.468	29.66622863
527.24	29.44788566
528.012	29.20433883
528.785	28.85147499
529.557	28.61941404
530.329	28.38107483
531.101	28.31466761
531.873	28.00768759
532.645	27.89055998
533.417	27.66411719
534.189	27.60567641
534.96	27.253349
535.732	27.09164178
536.503	26.78622497
537.275	26.64926236
538.046	26.39274573
538.818	26.15994584
539.589	26.04342736
540.36	25.96192447
541.131	25.69876142
541.902	25.58300085
542.673	25.4810665
543.444	25.34844325
544.214	25.04157392
544.985	24.93017561
545.756	24.85257816
546.526	24.65484971
547.297	24.5597228
548.067	24.43243575
548.837	24.27993124
549.608	24.24419449
550.378	24.04493216
551.148	23.97356432
551.918	23.82545405
552.688	23.7293324
553.457	23.63864314
554.227	23.55184085
554.997	23.42650011
555.766	23.20495302
556.536	23.26642517
557.305	23.08517863
558.075	23.02562941
558.844	22.87916212
559.613	22.82321746
560.382	22.70292337
561.151	22.50679712
561.92	22.54653941
562.689	22.48099341
563.458	22.3921144
564.227	22.35210792
564.995	22.2439819
565.764	22.15661854
566.532	22.09706492
567.301	21.83073258
568.069	21.85584444
568.837	21.81477665
569.606	21.70224266
570.374	21.63453579
571.142	21.69356935
571.91	21.69897689
572.678	21.49935045
573.445	21.49104184
574.213	21.41501195
574.981	21.24447472
575.748	21.1388579
576.516	21.14969807
577.283	21.20531295
578.05	21.18293292
578.818	21.17577847
579.585	21.08579472
580.352	20.99462716
581.119	21.0143043
581.886	20.98071725
582.653	20.93374073
583.419	20.80801787
584.186	20.71810147
584.953	20.72947954
585.719	20.71635789
586.486	20.63204486
587.252	20.62669456
588.018	20.53792336
588.785	20.54991849
589.551	20.47745204
590.317	20.55561436
591.083	20.5373906
591.849	20.39012424
592.615	20.40913761
593.38	20.35658637
594.146	20.33789769
594.912	20.34223721
595.677	20.16707863
596.443	20.15142996
597.208	20.22641029
597.973	20.16861501
598.738	20.15721881
599.504	20.12253297
600.269	20.04762515
601.034	20.17663278
601.798	20.10670865
602.563	20.01020908
603.328	20.08742774
604.093	20.12553236
604.857	20.08689351
605.622	20.0905931
606.386	20.06577171
607.151	20.02902493
607.915	20.10171453
608.679	20.01102952
609.443	19.93704117
610.207	20.0313479
610.971	19.95280169
611.735	20.02236077
612.499	20.03972321
613.262	20.02125714
614.026	19.99274128
614.79	19.96306229
615.553	20.00347906
616.316	20.0172334
617.08	20.09016432
617.843	20.02353899
618.606	20.07676764
619.369	20.10433329
620.132	19.99623469
620.895	20.05775612
621.658	20.05610573
622.421	20.01863624
623.183	20.06641645
623.946	20.03021776
624.709	19.96919569
625.471	20.07305071
626.233	19.9816596
626.996	20.18468372
627.758	20.16937134
628.52	20.07776173
629.282	20.23288127
630.044	20.26462804
630.806	20.34857591
631.568	20.32916972
632.329	20.41746864
633.091	20.23913165
633.853	20.29329327
634.614	20.42785954
635.376	20.40481357
636.137	20.51579319
636.898	20.55322744
637.659	20.53026345
638.42	20.59366594
639.181	20.70065275
639.942	20.72913544
640.703	20.74819586
641.464	20.74812694
642.225	20.90502237
642.985	20.83086325
643.746	20.83206537
644.506	20.94563517
645.267	20.92585138
646.027	21.10303866
646.787	21.07558237
647.547	21.14937156
648.307	21.33321755
649.067	21.24111104
649.827	21.29039331
650.587	21.45720161
651.347	21.41825953
652.106	21.51841799
652.866	21.48901166
653.626	21.6335484
654.385	21.70022172
655.144	21.87241584
655.904	21.9171328
656.663	22.06447733
657.422	22.0417124
658.181	22.13014809
658.94	22.29193849
659.699	22.4373648
660.458	22.4747794
661.216	22.60831451
661.975	22.77588107
662.733	22.78647105
663.492	22.87533054
664.25	23.02152431
665.009	23.10267645
665.767	23.25717624
666.525	23.34419953
667.283	23.51434527
668.041	23.61113101
668.799	23.74015134
669.557	23.83074244
670.314	24.10677048
671.072	24.21736438
671.83	24.33734446
672.587	24.38175125
673.345	24.7455531
674.102	24.69305114
674.859	24.90912398
675.616	25.10073618
676.374	25.21967962
677.131	25.41140672
677.888	25.61444387
678.644	25.83560569
679.401	25.91699238
680.158	25.96723007
680.914	26.30557485
681.671	26.55025877
682.428	26.80200431
683.184	26.98192947
683.94	27.19932067
684.696	27.32866584
685.453	27.49181206
686.209	27.72909692
686.965	28.0555815
687.721	28.25245193
688.476	28.44921437
689.232	28.82203767
689.988	28.96553417
690.743	29.23628375
691.499	29.45574728
692.254	29.71251674
693.01	30.05351401
693.765	30.30567325
694.52	30.56734479
695.275	30.81151464
696.03	31.08268641
696.785	31.42127173
697.54	31.60087788
698.295	31.94162281
699.049	32.35057314
699.804	32.44818667
700.559	32.90446543
701.313	33.12668635
702.067	33.5006916
702.822	33.65652353
703.576	34.15597822
704.33	34.41475536
705.084	34.77476397
705.838	35.26413871
706.592	35.42835581
707.346	35.67231945
708.099	36.07637626
708.853	36.50363678
709.607	36.80340024
710.36	37.08488833
711.113	37.56092722
711.867	37.98654705
712.62	38.36794893
713.373	38.84196058
714.126	38.88360327
714.879	39.19016352
715.632	39.58406804
716.385	39.86213224
717.138	40.26153364
717.89	40.71294512
718.643	41.02340432
719.396	41.30401046
720.148	41.95554547
720.9	41.95679616
721.653	42.48783919
722.405	42.76988048
723.157	43.03225259
723.909	43.71288243
724.661	43.89293655
725.413	44.04992144
726.165	44.70008618
726.916	44.6857226
727.668	45.23894482
728.419	45.50286458
729.171	46.02575197
729.922	46.19766534
730.673	46.39888888
731.425	46.83236265
732.176	47.20412053
732.927	47.68158952
733.678	47.71321475
734.429	48.01738958
735.18	48.19342413
735.93	48.64568802
736.681	48.97106865
737.431	49.24273521
738.182	49.47612543
738.932	49.65625278
739.683	50.27038483
740.433	50.47897428
741.183	50.62609219
741.933	50.93563562
742.683	51.12898833
743.433	51.26575961
744.183	51.58120767
744.933	51.83956282
745.682	51.73482263
746.432	52.02785902
747.181	52.61128889
747.931	52.93868612
748.68	53.14964925
749.429	53.22102524
750.179	53.74234201
750.928	53.49444417
751.677	53.71579781
752.426	53.88172869
753.174	54.06424185
753.923	54.2705897
754.672	54.58386349
755.42	54.79504997
756.169	55.01234189
756.917	55.05138747
757.666	54.90360911
758.414	55.1495149
759.162	55.38838103
759.91	55.41533556
760.658	55.96997659
761.406	56.03853484
762.154	56.0213556
762.902	56.48453363
763.65	56.37417804
764.397	56.81976455
765.145	57.58640756
765.892	56.89651964
766.64	56.26354843
767.387	56.52840146
768.134	56.60076625
768.881	56.97069115
769.628	56.79540674
770.375	56.84301543
771.122	57.15265897
771.869	57.28988329
772.616	56.82458295
773.362	57.56031927
774.109	57.22533851
774.855	57.44067875
775.602	57.70376036
776.348	57.8951353
777.094	57.52241337
777.841	58.07605685
778.587	57.85615865
779.333	58.29883538
780.078	58.17629375
780.824	58.14836263
781.57	57.92036109
782.316	58.330543
783.061	58.21335999
783.807	58.24740509
784.552	58.85103696
785.297	58.15446194
786.043	58.57650648
786.788	58.19436622
787.533	58.5596769
788.278	58.1581569
789.023	58.94781094
789.768	59.3612742
790.512	58.90690286
791.257	58.70020099
792.002	58.875724
792.746	58.69167284
793.491	59.34112177
794.235	58.3508511
794.979	58.59238267
795.723	58.99889453
796.467	58.43980392
797.211	59.89079544
797.955	58.82204526
798.699	59.26855903
799.443	58.99104507
800.187	59.41993514
800.93	59.26082041
801.674	59.56914761
802.417	59.33676653
803.16	58.45429118
803.904	59.14545121
804.647	59.74150906
805.39	59.64763452
806.133	59.62717119
806.876	60.10904052
807.619	59.10766549
808.361	59.20878726
809.104	59.82322557
809.847	60.01330797
810.589	60.71971277
811.332	59.39785443
812.074	59.85959037
812.816	60.72123317
813.558	60.02183132
814.301	59.90769998
815.043	59.94612472
815.784	60.43187561
816.526	60.37036522
817.268	60.85638827
818.01	59.99702682
818.751	59.99039542
819.493	60.2754699
820.234	60.42289201
820.976	60.56983902
821.717	61.57973134
822.458	61.06853777
823.199	62.35842597
823.94	62.52904316
824.681	60.82366626
825.422	60.11785291
826.163	59.69995871
826.903	59.878299
827.644	60.84522603
828.385	61.63836841
829.125	61.06789247
829.865	60.66819282
830.606	59.6115976
831.346	60.55083603
832.086	60.76328018
832.826	61.00456147
833.566	60.76460794
834.306	61.35088952
835.046	61.82685038
835.785	61.96781773
836.525	61.01790242
837.264	61.05187775
838.004	59.73293029
838.743	60.58278318
839.482	59.92716701
840.222	60.91117633
840.961	62.17832086
841.7	61.71042922
842.439	61.16965016
843.177	60.32151895
843.916	61.01738759
844.655	61.3866622
845.394	60.51382817
846.132	61.81101775
846.87	61.46238462
847.609	62.2171459
848.347	61.35308847
849.085	60.73651734
849.823	61.14870616
850.561	62.74238476
851.299	62.17538981
852.037	63.1620103
852.775	61.18814499
853.513	61.1367631
854.25	61.66240815
854.988	61.07385862
855.725	61.67869956
856.462	62.03623701
857.2	61.41676545
857.937	60.84345601
858.674	60.8374334
859.411	61.36197795
860.148	59.37192253
860.885	60.99824245
861.622	61.56982878
862.358	62.53774905
863.095	62.4519219
863.831	62.44655023
864.568	63.19396979
865.304	61.48314377
866.04	62.79819194
866.776	63.17574391
867.513	63.17186351
868.249	63.60574603
868.984	62.30142158
869.72	63.71370449
870.456	63.5695616
871.192	63.58033627
871.927	63.53722362
872.663	63.28789571
873.398	62.54110216
874.134	63.64271926
874.869	63.79787294
875.604	63.32771092
876.339	63.12086556
877.074	63.78242108
877.809	64.28372081
878.544	64.3488987
879.278	63.60693252
880.013	64.70402245
880.748	65.10658773
881.482	65.5339376
882.217	65.9412788
882.951	64.80839643
883.685	63.90858306
884.419	63.37479928
885.153	63.32900753
885.887	63.72093505
886.621	62.99922531
887.355	64.07028012
888.089	63.41688863
888.822	64.51277593
889.556	63.48800217
890.289	64.02965412
891.023	64.26665739
891.756	64.16439216
892.489	64.44323426
893.222	65.02428848
893.955	65.59071697
894.688	65.65569796
895.421	65.36848224
896.154	65.56217026
896.887	64.54128007
897.619	64.28306772
898.352	63.87639668
899.084	64.013561
899.817	64.77418836
900.549	64.46816266
901.281	64.79028584
902.013	65.42368742
902.745	65.28520924
903.477	65.56427503
904.209	66.22960265
904.941	67.24030705
905.673	66.77852437
906.404	64.93563148
907.136	64.43301801
907.867	64.56320957
908.599	65.00072354
909.33	66.17760151
910.061	65.9091355
910.792	65.78339503
911.523	65.59337718
912.254	65.10496884
912.985	67.04122237
913.716	66.94355804
914.446	66.09187078
915.177	67.78957217
915.908	67.75599926
916.638	67.84376084
917.368	66.92845909
918.099	66.12279733
918.829	65.41780075
919.559	66.25368005
920.289	65.96343431
921.019	66.20659691
921.748	66.28355773
922.478	66.40515391
923.208	66.70112621
923.937	66.63038534
924.667	66.48019568
925.396	66.78297029
926.126	66.49176505
926.855	65.96198955
927.584	67.16639906
928.313	66.96058208
929.042	66.92070383
929.771	67.20002241
930.5	67.94555291
931.228	67.72092906
931.957	66.96003141
932.686	67.83900479
933.414	67.81181027
934.142	67.8850018
934.871	67.7900846
935.599	68.0988751
936.327	68.52501696
937.055	69.05204299
937.783	68.87218791
938.511	69.04376341
939.239	68.69025765
939.966	67.87240847
940.694	68.07162641
941.421	68.23485483
942.149	68.25308958
942.876	68.15130221
943.603	68.99815349
944.331	69.15520696
945.058	67.78209878
945.785	69.17641208
946.512	68.74805716
947.239	69.67843912
947.965	68.39971702
948.692	68.99994084
949.418	69.33931321
950.145	69.18759213
950.871	68.91332697
951.598	70.02630351
952.324	68.88533211
953.05	69.20470955
953.776	69.06772799
954.502	69.45113816
955.228	69.4856978
955.954	69.87288212
956.68	69.44504063
957.405	69.10724476
958.131	69.60879037
958.856	70.28641435
959.582	70.24438566
960.307	70.11552195
961.032	68.88682755
961.757	69.22886631
962.482	69.95032315
963.207	70.12776966
963.932	70.40208617
964.657	70.41632563
965.381	70.02886387
966.106	70.33218709
966.831	70.08345793
967.555	70.50174183
968.279	70.77083258
969.004	71.65328827
969.728	71.52474654
970.452	70.8952936
971.176	70.95915767
971.9	70.98632829
972.624	71.94879412
973.347	71.38990467
974.071	71.57151285
974.794	70.66955771
975.518	71.95890553
976.241	71.55568473
976.965	71.05109757
977.688	71.93044225
978.411	72.62888091
979.134	72.48632876
979.857	72.79313068
980.58	72.52487738
981.303	71.51367262
982.025	70.99299773
982.748	71.21161837
983.471	71.30953514
984.193	71.74247842
984.915	71.70212418
985.638	71.7703539
986.36	71.47138802
987.082	71.71669315
987.804	71.90232824
988.526	72.20683692
989.248	70.27032394
989.969	58.82355799
990.691	13.3333213
991.413	199.99998612
