Data from Reflection_08.txt Node
Date: Thu Oct 13 20:32:08 CEST 2022
User: Ocean Optics
Spectrometer: QEP02356
Trigger mode: 4
Integration Time (sec): 1.400000E0
Scans to average: 1
Electric dark correction enabled: true
Nonlinearity correction enabled: true
Boxcar width: 0
XAxis mode: Wavelengths
Number of Pixels in Spectrum: 1044
>>>>>Begin Spectral Data<<<<<
194.596	-92.85705575
195.4	-35.71426216
196.203	-35.71426216
197.007	92.10525357
197.81	0.42736777
198.613	2.38105099
199.417	0.41052638
200.22	4.38034188
201.023	9.36036945
201.826	0.41877782
202.629	4.61442368
203.432	-2.10618031
204.235	0.36498087
205.038	3.60015119
205.84	2.8506646
206.643	4.6813691
207.445	5.73577196
208.248	0.35064851
209.05	-2.85539992
209.853	-0.2035383
210.655	3.75174238
211.457	3.75174232
212.259	1.24858603
213.061	1.27279962
213.863	3.1662484
214.665	2.16894229
215.467	3.46218055
216.269	4.31156734
217.07	0.76206142
217.872	1.71607578
218.674	4.1024901
219.475	5.45165494
220.277	2.78136397
221.078	-1.6688226
221.879	2.33303906
222.68	2.70123324
223.481	4.87984993
224.283	3.39326441
225.084	3.25971153
225.884	6.06275612
226.685	0.79955299
227.486	1.74919473
228.287	-1.69394775
229.087	5.42621119
229.888	4.75921752
230.688	2.65032957
231.489	1.29158524
232.289	1.7491947
233.089	3.60967262
233.89	3.24375296
234.69	2.71426618
235.49	-0.18451233
236.29	4.14188743
237.09	0.32343265
237.89	3.60967262
238.689	-0.17836958
239.489	1.69998232
240.289	3.95212122
241.088	1.26057658
241.888	2.66287477
242.687	2.21040105
243.486	2.88107433
244.286	6.67139889
245.085	4.75921757
245.884	0.86325877
246.683	3.41073206
247.482	0.82807046
248.281	0.83659581
249.08	0.31212725
249.878	3.46423073
250.677	0.86786871
251.476	2.48334736
252.274	-1.29611078
253.073	4.2540391
253.871	2.0000991
254.67	-1.33246545
255.468	6.60163625
256.266	3.08657181
257.064	2.43113776
257.862	5.92775446
258.66	3.51943465
259.458	1.9675347
260.256	7.80314855
261.054	-0.195069
261.851	1.42476688
262.649	-0.17836958
263.446	6.73706677
264.244	-0.67654541
265.041	2.25347575
265.839	6.09200778
266.636	4.89096105
267.433	3.44653321
268.23	5.11581958
269.027	4.07433195
269.824	1.60230954
270.621	1.50894467
271.418	2.67965431
272.215	2.58554616
273.011	4.11451509
273.808	0.61732911
274.604	1.41473403
275.401	1.62151196
276.197	3.92436297
276.994	2.7536265
277.79	5.78016536
278.586	1.36745955
279.382	3.64655003
280.178	3.76729765
280.974	2.61567459
281.77	4.45822044
282.566	4.1299337
283.361	2.71857687
284.157	2.3723521
284.953	3.20480823
285.748	3.00935172
286.544	2.61546427
287.339	3.07181992
288.134	3.10659128
288.93	2.84210823
289.725	2.90736532
290.52	3.49048611
291.315	3.76241223
292.11	3.55589835
292.905	3.37726694
293.699	3.37838328
294.494	3.72520466
295.289	3.09806867
296.083	3.66555942
296.878	3.21303719
297.672	3.53767299
298.467	3.36144571
299.261	3.56617456
300.055	3.42790184
300.849	3.6474782
301.643	3.76949167
302.437	3.53815914
303.231	3.34097818
304.025	3.41116833
304.819	3.39092752
305.612	3.52378367
306.406	3.58417054
307.2	3.24128737
307.993	3.30465508
308.786	3.45230144
309.58	3.52214098
310.373	3.66026278
311.166	3.45154829
311.959	3.52906732
312.752	3.37774788
313.545	3.29662016
314.338	3.62393925
315.131	3.30022652
315.924	3.31270581
316.716	3.48511902
317.509	3.48717367
318.302	3.30658678
319.094	3.388722
319.886	3.4410899
320.679	3.353945
321.471	3.45314796
322.263	3.48120229
323.055	3.26827312
323.847	3.32247627
324.639	3.35862307
325.431	3.40904123
326.223	3.39652538
327.015	3.43312669
327.806	3.43529362
328.598	3.23504388
329.389	3.40062528
330.181	3.50891734
330.972	3.46206736
331.763	3.29744888
332.555	3.35206996
333.346	3.3916735
334.137	3.36271951
334.928	3.36467297
335.719	3.27915791
336.51	3.33518817
337.3	3.33989012
338.091	3.33012738
338.882	3.44778772
339.672	3.3825117
340.463	3.34805216
341.253	3.32170213
342.043	3.3299149
342.834	3.29224275
343.624	3.3050809
344.414	3.34047155
345.204	3.27952865
345.994	3.38668527
346.784	3.32838447
347.574	3.25582338
348.363	3.29595719
349.153	3.34024474
349.943	3.30561424
350.732	3.28815237
351.521	3.25538392
352.311	3.22057552
353.1	3.18339508
353.889	3.34297043
354.678	3.24408733
355.468	3.22779803
356.257	3.2683719
357.045	3.37575821
357.834	3.20063111
358.623	3.42073576
359.412	3.34437301
360.2	3.30784658
360.989	3.20551333
361.777	3.28476629
362.566	3.26837631
363.354	3.24530124
364.142	3.18392254
364.931	3.30315261
365.719	3.31937521
366.507	3.23279833
367.295	3.2691607
368.083	3.26573104
368.87	3.22703145
369.658	3.18089326
370.446	3.31786482
371.233	3.22907411
372.021	3.26427602
372.808	3.17767244
373.596	3.23753529
374.383	3.18787081
375.17	3.20670242
375.957	3.17734406
376.745	3.20931829
377.532	3.2476965
378.318	3.25652534
379.105	3.18055511
379.892	3.14396735
380.679	3.20464028
381.465	3.21263332
382.252	3.18523053
383.038	3.16626075
383.825	3.18929474
384.611	3.23051207
385.397	3.16321706
386.184	3.11783949
386.97	3.18455369
387.756	3.20073052
388.542	3.27090524
389.328	3.16790508
390.113	3.17090864
390.899	3.13772945
391.685	3.14091794
392.47	3.19826167
393.256	3.21246723
394.041	3.16712746
394.827	3.18197017
395.612	3.13971607
396.397	3.10298519
397.182	3.08177213
397.967	3.18972681
398.752	3.19721164
399.537	3.14836838
400.322	3.11831892
401.107	3.11085729
401.891	3.11470582
402.676	3.15084304
403.461	3.08570499
404.245	3.06607981
405.029	3.05577613
405.814	3.17479983
406.598	3.09512945
407.382	3.13671675
408.166	3.0988359
408.95	3.06319909
409.734	3.09307265
410.518	3.11539757
411.302	3.10908038
412.086	3.10272335
412.869	3.09643652
413.653	3.07718324
414.436	3.08854838
415.22	3.08650491
416.003	3.07114187
416.786	3.12735686
417.569	3.04675379
418.353	3.08483255
419.136	3.077534
419.919	3.08414956
420.701	3.11074277
421.484	3.05540977
422.267	3.05205952
423.05	3.0780394
423.832	3.08151028
424.615	3.04323059
425.397	3.07172878
426.18	3.05627767
426.962	3.06395144
427.744	3.07868345
428.526	3.03023081
429.308	3.05069542
430.09	3.04918178
430.872	3.01153467
431.654	3.09356915
432.436	3.0766658
433.217	3.04937049
433.999	3.00664105
434.781	3.02934783
435.562	3.03765206
436.343	3.02162908
437.125	3.03903914
437.906	2.9953934
438.687	3.06608341
439.468	3.01803414
440.249	3.08098303
441.03	3.02562385
441.811	3.00687042
442.592	3.01678035
443.372	3.04085004
444.153	3.02493883
444.934	3.03548191
445.714	3.00716373
446.494	3.02614103
447.275	3.03628857
448.055	3.00195001
448.835	2.98792273
449.615	3.01981808
450.395	3.04451481
451.175	3.01837674
451.955	3.00177531
452.735	2.9687169
453.515	3.04132139
454.294	2.98519844
455.074	3.00846567
455.853	2.97248641
456.633	2.98696723
457.412	2.98957075
458.191	2.98162305
458.971	2.98069708
459.75	2.99086017
460.529	2.96135442
461.308	2.94590985
462.087	2.97886401
462.865	2.96420951
463.644	2.93023392
464.423	2.94664194
465.201	2.92112804
465.98	2.9753077
466.758	2.96912072
467.537	2.93942318
468.315	2.96227151
469.093	2.94763784
469.871	2.93094595
470.649	2.93869546
471.427	2.89034571
472.205	2.91012669
472.983	2.89607662
473.761	2.94499109
474.538	2.91408172
475.316	2.94349808
476.093	2.89747179
476.871	2.91786196
477.648	2.92933773
478.426	2.92105081
479.203	2.9029014
479.98	2.92035975
480.757	2.91479779
481.534	2.90822413
482.311	2.90781477
483.088	2.89174326
483.864	2.92855486
484.641	2.90125543
485.418	2.88965426
486.194	2.9169323
486.971	2.90332452
487.747	2.88091249
488.523	2.87581968
489.3	2.92229095
490.076	2.87430999
490.852	2.91540023
491.628	2.89672394
492.404	2.875446
493.179	2.8920169
493.955	2.8487319
494.731	2.88606063
495.506	2.87686205
496.282	2.87962943
497.057	2.88713219
497.833	2.88117798
498.608	2.89217838
499.383	2.90421399
500.159	2.85669162
500.934	2.85320579
501.709	2.8887288
502.483	2.8458924
503.258	2.89367253
504.033	2.86282111
504.808	2.87161647
505.582	2.86417688
506.357	2.87519581
507.131	2.87078065
507.906	2.82623725
508.68	2.81967766
509.454	2.85372899
510.228	2.8434267
511.002	2.82338972
511.776	2.82585545
512.55	2.8259429
513.324	2.80806626
514.098	2.81938643
514.872	2.83984828
515.645	2.85309216
516.419	2.85691075
517.192	2.84904747
517.966	2.8393675
518.739	2.85877635
519.512	2.82126467
520.285	2.80126598
521.058	2.78729143
521.831	2.80107089
522.604	2.75931101
523.377	2.79370281
524.15	2.79930579
524.923	2.77128945
525.695	2.80370767
526.468	2.78149547
527.24	2.80255007
528.012	2.78207291
528.785	2.80261242
529.557	2.77616979
530.329	2.78530309
531.101	2.77226625
531.873	2.76430122
532.645	2.78784923
533.417	2.77897204
534.189	2.77666337
534.96	2.80694092
535.732	2.77075693
536.503	2.78478135
537.275	2.75951385
538.046	2.76828253
538.818	2.73966956
539.589	2.76227991
540.36	2.73679451
541.131	2.746615
541.902	2.76432182
542.673	2.78444943
543.444	2.76547891
544.214	2.7429412
544.985	2.72144538
545.756	2.7052381
546.526	2.7338969
547.297	2.73368234
548.067	2.7288974
548.837	2.74572786
549.608	2.7197284
550.378	2.69897472
551.148	2.71398407
551.918	2.72537449
552.688	2.7294171
553.457	2.7262994
554.227	2.69830408
554.997	2.70121426
555.766	2.69303318
556.536	2.7125767
557.305	2.68268493
558.075	2.71335737
558.844	2.73128729
559.613	2.74157806
560.382	2.69541374
561.151	2.71740107
561.92	2.69935134
562.689	2.72650464
563.458	2.71971887
564.227	2.68818042
564.995	2.72847652
565.764	2.70017942
566.532	2.68297486
567.301	2.7080906
568.069	2.72033451
568.837	2.70212859
569.606	2.70306235
570.374	2.6899188
571.142	2.69154378
571.91	2.68606709
572.678	2.67271065
573.445	2.68790949
574.213	2.69050282
574.981	2.67268637
575.748	2.68358484
576.516	2.70101139
577.283	2.68921647
578.05	2.66891283
578.818	2.69736666
579.585	2.68551822
580.352	2.69047833
581.119	2.69552968
581.886	2.70315414
582.653	2.68830548
583.419	2.66124918
584.186	2.69761388
584.953	2.67640071
585.719	2.69216287
586.486	2.66250707
587.252	2.69284371
588.018	2.67973958
588.785	2.63362912
589.551	2.6811347
590.317	2.65916445
591.083	2.6600894
591.849	2.64410625
592.615	2.67167404
593.38	2.66535987
594.146	2.65307495
594.912	2.66868065
595.677	2.68170315
596.443	2.66968747
597.208	2.65093908
597.973	2.65548088
598.738	2.63879665
599.504	2.66767467
600.269	2.636016
601.034	2.63183227
601.798	2.62844324
602.563	2.64523149
603.328	2.63123265
604.093	2.64183085
604.857	2.63009467
605.622	2.66482932
606.386	2.61877237
607.151	2.65318379
607.915	2.64849613
608.679	2.62397182
609.443	2.61409606
610.207	2.62786151
610.971	2.6483421
611.735	2.61815172
612.499	2.64477668
613.262	2.6340615
614.026	2.62148349
614.79	2.62790144
615.553	2.6276191
616.316	2.62715228
617.08	2.58695428
617.843	2.58409563
618.606	2.61633057
619.369	2.6598919
620.132	2.61834328
620.895	2.61911341
621.658	2.59685574
622.421	2.63038603
623.183	2.61142347
623.946	2.62437118
624.709	2.58415512
625.471	2.60820162
626.233	2.61253184
626.996	2.60610488
627.758	2.6056295
628.52	2.59689401
629.282	2.59906448
630.044	2.60753191
630.806	2.62083784
631.568	2.61630135
632.329	2.59489843
633.091	2.61035938
633.853	2.62619848
634.614	2.58206387
635.376	2.59027707
636.137	2.58066102
636.898	2.61345368
637.659	2.60011015
638.42	2.55648639
639.181	2.61059256
639.942	2.59994023
640.703	2.58069844
641.464	2.61910128
642.225	2.57117709
642.985	2.58655789
643.746	2.59588683
644.506	2.59879588
645.267	2.57330917
646.027	2.58612601
646.787	2.60087249
647.547	2.5625777
648.307	2.58758758
649.067	2.58010054
649.827	2.582066
650.587	2.60712857
651.347	2.58475533
652.106	2.54817584
652.866	2.5492118
653.626	2.57388596
654.385	2.54722403
655.144	2.57035643
655.904	2.57943957
656.663	2.58916572
657.422	2.59422242
658.181	2.57513628
658.94	2.56179612
659.699	2.58201501
660.458	2.59168466
661.216	2.53863632
661.975	2.59244551
662.733	2.57365462
663.492	2.54616378
664.25	2.5830632
665.009	2.55970427
665.767	2.57668998
666.525	2.52948467
667.283	2.5533589
668.041	2.55012858
668.799	2.55583869
669.557	2.53402052
670.314	2.53893645
671.072	2.56029173
671.83	2.52489369
672.587	2.53470724
673.345	2.54682982
674.102	2.55668351
674.859	2.53108127
675.616	2.53915268
676.374	2.54472511
677.131	2.54231553
677.888	2.55184198
678.644	2.53015779
679.401	2.56128026
680.158	2.5349062
680.914	2.57592548
681.671	2.53637343
682.428	2.56494697
683.184	2.54680133
683.94	2.53954162
684.696	2.55968567
685.453	2.5168036
686.209	2.52361742
686.965	2.4949314
687.721	2.52992606
688.476	2.53250319
689.232	2.54627539
689.988	2.54866851
690.743	2.52424989
691.499	2.55254292
692.254	2.52988403
693.01	2.51017766
693.765	2.48515331
694.52	2.53515744
695.275	2.51921355
696.03	2.51119258
696.785	2.52822344
697.54	2.50702409
698.295	2.48930291
699.049	2.53269432
699.804	2.53535307
700.559	2.52381333
701.313	2.49865085
702.067	2.53014927
702.822	2.49246199
703.576	2.52980356
704.33	2.52192855
705.084	2.51332609
705.838	2.5048022
706.592	2.49617747
707.346	2.52656203
708.099	2.52571903
708.853	2.48645146
709.607	2.49025253
710.36	2.49855755
711.113	2.49349516
711.867	2.53409516
712.62	2.51923419
713.373	2.51497511
714.126	2.5148826
714.879	2.47717925
715.632	2.50155884
716.385	2.50042882
717.138	2.48961657
717.89	2.47776535
718.643	2.51146956
719.396	2.50560924
720.148	2.53881336
720.9	2.49757243
721.653	2.4848091
722.405	2.49797217
723.157	2.49544746
723.909	2.50263816
724.661	2.49646867
725.413	2.51776834
726.165	2.48295238
726.916	2.471718
727.668	2.49753248
728.419	2.46680159
729.171	2.48350333
729.922	2.48546851
730.673	2.50242471
731.425	2.45775741
732.176	2.49045923
732.927	2.50230936
733.678	2.49239516
734.429	2.47132711
735.18	2.44985218
735.93	2.48219497
736.681	2.46936411
737.431	2.49288314
738.182	2.48306149
738.932	2.46209347
739.683	2.50908829
740.433	2.43378199
741.183	2.51074172
741.933	2.47247369
742.683	2.47130603
743.433	2.48806473
744.183	2.46656583
744.933	2.44964509
745.682	2.47835011
746.432	2.45752954
747.181	2.4490664
747.931	2.48547513
748.68	2.47240355
749.429	2.44965875
750.179	2.50953029
750.928	2.43198659
751.677	2.45006696
752.426	2.48896503
753.174	2.44756879
753.923	2.45420318
754.672	2.48111556
755.42	2.45193325
756.169	2.43503235
756.917	2.4693061
757.666	2.5168197
758.414	2.45540585
759.162	2.43908078
759.91	2.41721555
760.658	2.45051675
761.406	2.43792265
762.154	2.45938577
762.902	2.42959431
763.65	2.4770479
764.397	2.48433995
765.145	2.51002089
765.892	2.46131409
766.64	2.43669744
767.387	2.45530006
768.134	2.45353531
768.881	2.3947962
769.628	2.40997047
770.375	2.49580937
771.122	2.41888616
771.869	2.48432362
772.616	2.420568
773.362	2.45550624
774.109	2.48793879
774.855	2.47792538
775.602	2.43243625
776.348	2.43942156
777.094	2.43153874
777.841	2.39993113
778.587	2.38842216
779.333	2.42023807
780.078	2.43091706
780.824	2.30870161
781.57	2.36810367
782.316	2.37005452
783.061	2.31266814
783.807	2.39910166
784.552	2.45640404
785.297	2.38507996
786.043	2.39140677
786.788	2.27751829
787.533	2.31034508
788.278	2.30548677
789.023	2.38069895
789.768	2.48049576
790.512	2.3548471
791.257	2.47578174
792.002	2.29396366
792.746	2.3531808
793.491	2.42253898
794.235	2.36260251
794.979	2.32037839
795.723	2.38262908
796.467	2.454656
797.211	2.31044802
797.955	2.41500111
798.699	2.33376904
799.443	2.33936789
800.187	2.45385891
800.93	2.26306141
801.674	2.50261225
802.417	2.23396235
803.16	2.40306847
803.904	2.42082139
804.647	2.42051306
805.39	2.23258763
806.133	2.33552348
806.876	2.3125231
807.619	2.38576695
808.361	2.25495371
809.104	2.18417361
809.847	2.41250746
810.589	2.39944661
811.332	2.5093708
812.074	2.35099411
812.816	2.3580425
813.558	2.23245392
814.301	2.22318523
815.043	2.2117982
815.784	2.27602731
816.526	2.20141587
817.268	2.29919868
818.01	2.45200775
818.751	2.42886218
819.493	2.16111993
820.234	2.49657651
820.976	2.35930657
821.717	2.36415292
822.458	2.4319219
823.199	2.40003202
823.94	2.39345161
824.681	2.37158673
825.422	2.32798925
826.163	2.34881798
826.903	2.3702767
827.644	2.39648891
828.385	2.40883359
829.125	2.3480897
829.865	2.34940835
830.606	2.39480004
831.346	2.28338321
832.086	2.33317154
832.826	2.39535996
833.566	2.3041246
834.306	2.29052398
835.046	2.41910873
835.785	2.36143414
836.525	2.34948465
837.264	2.34758953
838.004	2.39298146
838.743	2.27014501
839.482	2.30725405
840.222	2.13892822
840.961	2.03307347
841.7	2.26371274
842.439	2.25176911
843.177	2.27105839
843.916	2.22908298
844.655	2.15103762
845.394	2.13257835
846.132	2.3067322
846.87	1.93520395
847.609	2.2967004
848.347	2.13333013
849.085	2.71676629
849.823	2.29009797
850.561	2.5107408
851.299	2.54507241
852.037	2.35587109
852.775	2.17559895
853.513	2.54217567
854.25	2.48804034
854.988	2.01798873
855.725	2.12286909
856.462	1.9046991
857.2	2.52863004
857.937	2.42584619
858.674	2.32124223
859.411	2.42433336
860.148	2.11385193
860.885	2.37233739
861.622	2.26834636
862.358	2.19282775
863.095	2.30668413
863.831	2.42811689
864.568	2.63503363
865.304	2.13804389
866.04	1.90522338
866.776	2.0079872
867.513	2.1258291
868.249	2.13606778
868.984	2.45261504
869.72	2.61745501
870.456	2.14080364
871.192	2.24274242
871.927	2.27158097
872.663	2.31939745
873.398	2.090358
874.134	2.148935
874.869	2.39016021
875.604	2.22095797
876.339	2.08500104
877.074	2.19632361
877.809	2.25373035
878.544	2.38129312
879.278	2.09953232
880.013	2.3437796
880.748	2.18478806
881.482	2.26617699
882.217	2.26909561
882.951	2.34680048
883.685	2.32388334
884.419	2.3177571
885.153	2.28379574
885.887	2.28097447
886.621	2.2516057
887.355	2.27323636
888.089	2.30675925
888.822	2.29704831
889.556	2.30567598
890.289	2.27690158
891.023	2.25200005
891.756	2.24743205
892.489	2.12668689
893.222	2.22659345
893.955	2.19028929
894.688	2.22426695
895.421	2.19501171
896.154	2.27827924
896.887	2.28794146
897.619	2.25416707
898.352	2.34771923
899.084	2.22926499
899.817	2.24113504
900.549	2.29178527
901.281	2.30210456
902.013	2.3409563
902.745	2.23527172
903.477	2.13539996
904.209	2.41506947
904.941	2.22365785
905.673	2.27479526
906.404	2.33101282
907.136	2.31515848
907.867	2.2787668
908.599	2.18812349
909.33	2.36855103
910.061	1.93786489
910.792	2.29584677
911.523	2.05392857
912.254	2.34537203
912.985	2.39732347
913.716	2.26439523
914.446	2.24603265
915.177	2.17258964
915.908	2.30827214
916.638	2.25150103
917.368	2.21329094
918.099	2.27990244
918.829	2.19872701
919.559	2.27491247
920.289	2.25342061
921.019	2.2356164
921.748	2.25225203
922.478	2.26544036
923.208	2.25065687
923.937	2.26943385
924.667	2.10185651
925.396	2.04980961
926.126	2.2417033
926.855	2.01553826
927.584	2.07570949
928.313	2.2404184
929.042	2.16350554
929.771	2.39997917
930.5	2.23194215
931.228	2.33760156
931.957	2.17801383
932.686	2.18321556
933.414	2.0700597
934.142	2.21407857
934.871	2.18190508
935.599	2.31459109
936.327	2.15313503
937.055	2.26857088
937.783	2.40871883
938.511	2.26418677
939.239	2.33853736
939.966	2.15104618
940.694	2.26863736
941.421	2.2336802
942.149	2.2424011
942.876	2.14914243
943.603	2.17013248
944.331	2.34080672
945.058	2.22800451
945.785	2.06347524
946.512	2.16429378
947.239	2.30243488
947.965	2.06356004
948.692	2.13882357
949.418	1.97995308
950.145	2.10914046
950.871	2.13847234
951.598	2.24195068
952.324	2.13348161
953.05	2.180525
953.776	2.09876036
954.502	2.19523859
955.228	2.14974735
955.954	2.24904827
956.68	2.11343877
957.405	2.14171245
958.131	2.22083627
958.856	2.09640928
959.582	2.14061109
960.307	2.37396818
961.032	2.35067485
961.757	2.24992614
962.482	2.11651037
963.207	2.08759188
963.932	2.00614919
964.657	2.11367467
965.381	2.15463406
966.106	2.16994644
966.831	2.12516302
967.555	2.11685555
968.279	2.0885444
969.004	2.14288801
969.728	2.15427134
970.452	2.07316476
971.176	2.14029386
971.9	2.15427527
972.624	2.21770286
973.347	2.20293277
974.071	2.1761899
974.794	2.1366756
975.518	2.16923581
976.241	2.14219468
976.965	2.15962791
977.688	2.15453907
978.411	2.21415464
979.134	2.22144552
979.857	2.22804039
980.58	2.23283405
981.303	2.15239866
982.025	2.19256551
982.748	2.19014518
983.471	2.18003982
984.193	2.18884526
984.915	2.18673298
985.638	2.23185677
986.36	2.2615387
987.082	2.10812181
987.804	2.27566977
988.526	2.17266089
989.248	17.56760476
989.969	-8.82354074
990.691	9.99999063
991.413	249.99997398
