Data from Reflection_30.txt Node
Date: Thu Oct 13 17:37:12 CEST 2022
User: Ocean Optics
Spectrometer: QEP02356
Trigger mode: 4
Integration Time (sec): 1.900000E0
Scans to average: 1
Electric dark correction enabled: true
Nonlinearity correction enabled: true
Boxcar width: 0
XAxis mode: Wavelengths
Number of Pixels in Spectrum: 1044
>>>>>Begin Spectral Data<<<<<
194.596	130.43481432
195.4	80.45972264
196.203	-5.12819783
197.007	-43.47821109
197.81	20.25968863
198.613	17.1760008
199.417	19.31810555
200.22	18.66742183
201.023	19.12149893
201.826	22.88788397
202.629	21.31790233
203.432	20.55155368
204.235	21.27134009
205.038	24.98408856
205.84	24.32707901
206.643	25.85142302
207.445	31.03786414
208.248	29.72942864
209.05	29.82684852
209.853	28.86606163
210.655	30.05309034
211.457	34.31568914
212.259	31.05213797
213.061	34.41123185
213.863	34.94191832
214.665	36.3744037
215.467	37.29624701
216.269	38.60160904
217.07	34.54218891
217.872	34.49994634
218.674	33.42727562
219.475	32.51703229
220.277	32.98306835
221.078	30.00671443
221.879	32.39497252
222.68	29.86761748
223.481	32.85011328
224.283	32.5170327
225.084	31.79165517
225.884	31.05213858
226.685	34.93639728
227.486	31.87014823
228.287	34.12223278
229.087	31.75575074
229.888	33.85090616
230.688	31.92397881
231.489	31.23424784
232.289	34.87381383
233.089	31.81205521
233.89	31.62768008
234.69	32.86825883
235.49	34.52718671
236.29	34.85402809
237.09	34.14254872
237.89	38.71468438
238.689	34.57335969
239.489	37.10945837
240.289	36.7532533
241.088	31.85128222
241.888	32.1423791
242.687	29.42940295
243.486	30.45308407
244.286	25.34317062
245.085	29.96172781
245.884	27.0967242
246.683	31.46072573
247.482	31.42231647
248.281	28.04275518
249.08	29.8676171
249.878	29.07303826
250.677	23.10956315
251.476	25.22313819
252.274	23.14859615
253.073	21.21875837
253.871	16.03556099
254.67	22.01171587
255.468	19.13556109
256.266	17.91305066
257.064	18.03269673
257.862	17.79260781
258.66	16.69793286
259.458	18.16051082
260.256	13.22079425
261.054	15.94203774
261.851	19.15617398
262.649	15.08061492
263.446	14.1942742
264.244	11.30921317
265.041	15.64392311
265.839	13.40558262
266.636	17.30768473
267.433	14.15411569
268.23	12.01422402
269.027	12.9982661
269.824	12.49494243
270.621	10.95593687
271.418	12.04246605
272.215	8.98654809
273.011	11.19140308
273.808	8.44193461
274.604	10.53526806
275.401	8.94228195
276.197	8.50655772
276.994	12.88825304
277.79	11.17610365
278.586	10.01077867
279.382	8.60370383
280.178	7.65889647
280.974	10.39712042
281.77	8.88444599
282.566	8.45992057
283.361	8.81514652
284.157	6.91975082
284.953	7.65991029
285.748	6.95994905
286.544	6.44260417
287.339	6.52606494
288.134	7.17662301
288.93	6.70905124
289.725	5.90489298
290.52	5.88947235
291.315	6.80001218
292.11	4.96163334
292.905	5.75388465
293.699	5.28411382
294.494	5.68013376
295.289	5.30737977
296.083	5.43551619
296.878	5.40936338
297.672	5.31470824
298.467	5.48936826
299.261	5.01793753
300.055	5.18984679
300.849	5.10866234
301.643	4.92492342
302.437	5.05945459
303.231	4.97018895
304.025	4.39912985
304.819	4.99663282
305.612	5.38902267
306.406	5.2210661
307.2	5.19357186
307.993	4.97025238
308.786	4.73595474
309.58	4.71480226
310.373	4.86181642
311.166	4.7380494
311.959	5.10801388
312.752	4.93099895
313.545	4.86129779
314.338	4.77367906
315.131	4.8060593
315.924	4.87071799
316.716	4.74357338
317.509	4.89753721
318.302	4.78315431
319.094	4.77045057
319.886	4.83141148
320.679	4.73456197
321.471	4.68647277
322.263	4.57581421
323.055	4.6718271
323.847	4.53658335
324.639	4.69823184
325.431	4.54887304
326.223	4.64053631
327.015	4.65570133
327.806	4.64046171
328.598	4.69106448
329.389	4.56037596
330.181	4.56262841
330.972	4.58696794
331.763	4.61130213
332.555	4.60292085
333.346	4.49574565
334.137	4.49772565
334.928	4.47149676
335.719	4.6165776
336.51	4.48204991
337.3	4.49565139
338.091	4.46807016
338.882	4.52371679
339.672	4.48656864
340.463	4.58492919
341.253	4.51572816
342.043	4.59436371
342.834	4.55890728
343.624	4.475769
344.414	4.58809991
345.204	4.53031246
345.994	4.49088426
346.784	4.58769692
347.574	4.42512528
348.363	4.48848104
349.153	4.5075947
349.943	4.45235939
350.732	4.5305933
351.521	4.62376434
352.311	4.53004649
353.1	4.58604333
353.889	4.53985695
354.678	4.53263791
355.468	4.51534668
356.257	4.48173712
357.045	4.45673113
357.834	4.58392324
358.623	4.52492521
359.412	4.58624066
360.2	4.53359467
360.989	4.59380538
361.777	4.57137423
362.566	4.54857913
363.354	4.58091337
364.142	4.56531787
364.931	4.49621132
365.719	4.61536047
366.507	4.60310964
367.295	4.58594083
368.083	4.63951246
368.87	4.57161545
369.658	4.57515127
370.446	4.56872367
371.233	4.6466023
372.021	4.625518
372.808	4.5814184
373.596	4.66321074
374.383	4.50761562
375.17	4.60154707
375.957	4.63491311
376.745	4.66944614
377.532	4.65505916
378.318	4.63180859
379.105	4.68725612
379.892	4.65283662
380.679	4.68868964
381.465	4.73276756
382.252	4.76226926
383.038	4.75762804
383.825	4.82711115
384.611	4.82946614
385.397	4.75250134
386.184	4.84395484
386.97	4.77334084
387.756	4.87714781
388.542	4.92799416
389.328	4.95071056
390.113	5.00432022
390.899	4.994406
391.685	5.03585347
392.47	4.97704281
393.256	5.1342493
394.041	5.11310903
394.827	5.15129996
395.612	5.1718976
396.397	5.23421701
397.182	5.27804843
397.967	5.1816529
398.752	5.23183841
399.537	5.2851978
400.322	5.28406293
401.107	5.32400023
401.891	5.30037976
402.676	5.4888144
403.461	5.45829827
404.245	5.41756956
405.029	5.45852438
405.814	5.43517281
406.598	5.43576324
407.382	5.47571942
408.166	5.45087853
408.95	5.44524326
409.734	5.4136664
410.518	5.43630243
411.302	5.42384148
412.086	5.47935208
412.869	5.41346193
413.653	5.47880125
414.436	5.40787428
415.22	5.41396013
416.003	5.46063276
416.786	5.46013404
417.569	5.39330341
418.353	5.4446813
419.136	5.37875963
419.919	5.42333096
420.701	5.45965799
421.484	5.48139384
422.267	5.4486209
423.05	5.41247628
423.832	5.48681688
424.615	5.40628601
425.397	5.44447347
426.18	5.44921848
426.962	5.435965
427.744	5.40376685
428.526	5.39689181
429.308	5.45090865
430.09	5.46956802
430.872	5.45537828
431.654	5.46469981
432.436	5.42053286
433.217	5.48353846
433.999	5.48403344
434.781	5.4691245
435.562	5.48807641
436.343	5.38956658
437.125	5.49847565
437.906	5.48129754
438.687	5.43433328
439.468	5.45684344
440.249	5.43607107
441.03	5.48671985
441.811	5.5132797
442.592	5.46112555
443.372	5.50527832
444.153	5.50785301
444.934	5.50696807
445.714	5.51157122
446.494	5.47991228
447.275	5.48985179
448.055	5.54556437
448.835	5.46977388
449.615	5.52466905
450.395	5.45114736
451.175	5.50470216
451.955	5.48530348
452.735	5.53800519
453.515	5.46925422
454.294	5.47061364
455.074	5.45271746
455.853	5.53190137
456.633	5.45612598
457.412	5.39681816
458.191	5.46811993
458.971	5.51043839
459.75	5.50984516
460.529	5.47027125
461.308	5.47117186
462.087	5.50571556
462.865	5.47731353
463.644	5.45564465
464.423	5.51294884
465.201	5.45765511
465.98	5.47603061
466.758	5.43346966
467.537	5.5139606
468.315	5.47509137
469.093	5.50409402
469.871	5.51312944
470.649	5.49838008
471.427	5.49256398
472.205	5.5005237
472.983	5.49161587
473.761	5.53204293
474.538	5.56202802
475.316	5.52935662
476.093	5.53827627
476.871	5.55362191
477.648	5.60681742
478.426	5.56226205
479.203	5.64546232
479.98	5.62256863
480.757	5.64461554
481.534	5.6175789
482.311	5.64751883
483.088	5.66138191
483.864	5.64103759
484.641	5.66173718
485.418	5.6666648
486.194	5.72973382
486.971	5.72103794
487.747	5.76130255
488.523	5.73013505
489.3	5.74866977
490.076	5.77519273
490.852	5.85912129
491.628	5.87697303
492.404	5.84532768
493.179	5.86708613
493.955	5.82955168
494.731	5.89886944
495.506	5.91202786
496.282	5.9849475
497.057	5.9724029
497.833	5.9695501
498.608	5.99524552
499.383	6.01066895
500.159	6.06459723
500.934	6.0699237
501.709	6.08973752
502.483	6.06959467
503.258	6.10315794
504.033	6.13097252
504.808	6.12002923
505.582	6.1737644
506.357	6.17971578
507.131	6.23156675
507.906	6.2153427
508.68	6.23124268
509.454	6.26034145
510.228	6.25947321
511.002	6.326306
511.776	6.37009889
512.55	6.36095433
513.324	6.38382515
514.098	6.42346267
514.872	6.41444758
515.645	6.47114305
516.419	6.46463648
517.192	6.56689978
517.966	6.48109016
518.739	6.65908116
519.512	6.56217459
520.285	6.6228686
521.058	6.62809592
521.831	6.67026352
522.604	6.70162929
523.377	6.7167062
524.15	6.69298894
524.923	6.73788792
525.695	6.77649706
526.468	6.85235122
527.24	6.8937656
528.012	6.86792177
528.785	6.87906345
529.557	6.99618336
530.329	6.89758989
531.101	6.96774652
531.873	6.99479201
532.645	7.06955148
533.417	7.02711908
534.189	7.11804659
534.96	7.0762958
535.732	7.15631086
536.503	7.1059274
537.275	7.12579878
538.046	7.22494299
538.818	7.18064732
539.589	7.15825124
540.36	7.2028432
541.131	7.20615279
541.902	7.26598869
542.673	7.22853323
543.444	7.27330599
544.214	7.29366789
544.985	7.30484608
545.756	7.27973217
546.526	7.34234306
547.297	7.3102826
548.067	7.38352765
548.837	7.44849424
549.608	7.44790488
550.378	7.42704747
551.148	7.50778225
551.918	7.4582584
552.688	7.51504153
553.457	7.54682887
554.227	7.57736266
554.997	7.6227543
555.766	7.6600461
556.536	7.64844386
557.305	7.7122568
558.075	7.71942238
558.844	7.83373313
559.613	7.90372786
560.382	7.91519459
561.151	7.93539039
561.92	8.02756317
562.689	8.066168
563.458	8.12672731
564.227	8.25671447
564.995	8.24951228
565.764	8.31004697
566.532	8.39003615
567.301	8.37671945
568.069	8.50731306
568.837	8.53003278
569.606	8.64442887
570.374	8.65670417
571.142	8.76121545
571.91	8.83020553
572.678	8.98259053
573.445	9.00830284
574.213	9.12759591
574.981	9.20242265
575.748	9.27721397
576.516	9.34983556
577.283	9.50042685
578.05	9.6374865
578.818	9.77742391
579.585	9.88360898
580.352	10.01533996
581.119	10.16032247
581.886	10.21073328
582.653	10.42332886
583.419	10.53572993
584.186	10.69769567
584.953	10.87681889
585.719	11.01738772
586.486	11.10933871
587.252	11.36649739
588.018	11.45882044
588.785	11.6231548
589.551	11.79892233
590.317	11.925186
591.083	12.02114308
591.849	12.097145
592.615	12.22638642
593.38	12.31457835
594.146	12.4629079
594.912	12.55856783
595.677	12.63718524
596.443	12.67528994
597.208	12.76722276
597.973	12.7822903
598.738	12.8900073
599.504	12.97190351
600.269	12.95797332
601.034	13.08024049
601.798	13.03289351
602.563	13.12390379
603.328	13.11542414
604.093	13.14974699
604.857	13.2271531
605.622	13.24895039
606.386	13.26535149
607.151	13.22259584
607.915	13.25372704
608.679	13.39418029
609.443	13.42372337
610.207	13.42096953
610.971	13.49699233
611.735	13.40291857
612.499	13.58756144
613.262	13.47908461
614.026	13.51022306
614.79	13.51413309
615.553	13.59358154
616.316	13.58134887
617.08	13.49572634
617.843	13.66967169
618.606	13.63393604
619.369	13.66872591
620.132	13.68495498
620.895	13.6887152
621.658	13.78992466
622.421	13.66047541
623.183	13.81358178
623.946	13.7737282
624.709	13.88361429
625.471	13.90753885
626.233	13.9462822
626.996	13.99135366
627.758	14.04843293
628.52	14.06181606
629.282	14.09738936
630.044	14.13890631
630.806	14.22162771
631.568	14.23192357
632.329	14.27872508
633.091	14.34238744
633.853	14.43196212
634.614	14.42298925
635.376	14.48260671
636.137	14.50199457
636.898	14.56629838
637.659	14.62416959
638.42	14.64555236
639.181	14.76341283
639.942	14.78067009
640.703	14.93671453
641.464	14.94124257
642.225	14.98192236
642.985	15.07370049
643.746	15.06743886
644.506	15.27369639
645.267	15.29366264
646.027	15.41753609
646.787	15.37004571
647.547	15.58707392
648.307	15.69579639
649.067	15.7475063
649.827	15.79015967
650.587	15.94201258
651.347	15.99681349
652.106	16.06086859
652.866	16.11239507
653.626	16.2870189
654.385	16.37825373
655.144	16.5229595
655.904	16.60939268
656.663	16.66022295
657.422	16.80539928
658.181	16.89405012
658.94	16.9911772
659.699	17.15482923
660.458	17.2654527
661.216	17.44984165
661.975	17.43682054
662.733	17.7378946
663.492	17.79377552
664.25	17.88328191
665.009	18.09204247
665.767	18.2197778
666.525	18.34996681
667.283	18.58173201
668.041	18.75007237
668.799	18.9057214
669.557	19.11250614
670.314	19.29052224
671.072	19.36768416
671.83	19.51327311
672.587	19.78523602
673.345	19.79378439
674.102	19.97480575
674.859	20.18171246
675.616	20.39593057
676.374	20.61329869
677.131	20.7021558
677.888	20.91011206
678.644	21.1522266
679.401	21.2366038
680.158	21.45299524
680.914	21.72791582
681.671	21.98041677
682.428	22.10440853
683.184	22.41662729
683.94	22.60801251
684.696	22.84770996
685.453	23.01684289
686.209	23.18703183
686.965	23.40048751
687.721	23.71536093
688.476	24.01202538
689.232	24.21912105
689.988	24.44567619
690.743	24.79266041
691.499	24.87883117
692.254	25.22037242
693.01	25.47340883
693.765	25.74559363
694.52	25.96790979
695.275	26.28655435
696.03	26.46814575
696.785	26.89283689
697.54	27.13855092
698.295	27.44195088
699.049	27.88232477
699.804	27.96043347
700.559	28.458519
701.313	28.65017641
702.067	29.05209752
702.822	29.35090583
703.576	29.68511753
704.33	29.94479735
705.084	30.30049314
705.838	30.47860828
706.592	30.89887638
707.346	31.16608638
708.099	31.60101436
708.853	31.81965137
709.607	32.0575867
710.36	32.52622192
711.113	32.77462522
711.867	33.12439296
712.62	33.36261303
713.373	33.62892944
714.126	34.0828622
714.879	34.42665927
715.632	34.53266475
716.385	34.93638178
717.138	35.526329
717.89	35.80931019
718.643	36.23534722
719.396	36.40608816
720.148	36.78674234
720.9	37.27250072
721.653	37.62682769
722.405	37.96031726
723.157	38.30827204
723.909	38.76872374
724.661	39.02987073
725.413	39.5137565
726.165	39.86189672
726.916	40.23794294
727.668	40.42827482
728.419	40.85596145
729.171	41.13970963
729.922	41.64254391
730.673	41.84420432
731.425	42.13261768
732.176	42.42295285
732.927	42.77840886
733.678	43.17661107
734.429	43.53411884
735.18	43.75163376
735.93	43.91787689
736.681	44.37727201
737.431	44.6689345
738.182	44.9255734
738.932	45.61619076
739.683	45.77233546
740.433	45.99190273
741.183	46.2687958
741.933	46.45107387
742.683	46.95159898
743.433	47.00387293
744.183	47.2629711
744.933	47.53592885
745.682	47.89559103
746.432	48.02841255
747.181	48.42382357
747.931	48.53285256
748.68	49.02528491
749.429	49.0413694
750.179	49.20521974
750.928	49.69280913
751.677	49.74029151
752.426	49.85249025
753.174	50.00089424
753.923	50.33990951
754.672	50.44716701
755.42	50.79788162
756.169	50.84022981
756.917	51.00370496
757.666	51.17129354
758.414	51.23910614
759.162	51.62140892
759.91	51.69499176
760.658	51.89254239
761.406	51.72301295
762.154	52.30588467
762.902	51.7315798
763.65	52.59726245
764.397	52.75070805
765.145	53.04529331
765.892	52.50992365
766.64	52.38165119
767.387	52.2988094
768.134	52.36285287
768.881	52.37926434
769.628	52.49728215
770.375	52.30438732
771.122	52.61793145
771.869	52.21021877
772.616	52.88870936
773.362	52.66533414
774.109	53.01230982
774.855	52.82493893
775.602	52.35551508
776.348	52.73225908
777.094	52.53382409
777.841	52.98371291
778.587	52.62846817
779.333	52.66353692
780.078	52.44210323
780.824	52.72657476
781.57	52.82449669
782.316	52.7403073
783.061	53.08147578
783.807	52.91247449
784.552	52.3983922
785.297	52.23080466
786.043	52.41081518
786.788	52.22245291
787.533	52.70904521
788.278	52.81129238
789.023	52.57427838
789.768	52.65514783
790.512	52.34975009
791.257	52.58309011
792.002	52.15458697
792.746	51.82584039
793.491	51.95202125
794.235	51.60402417
794.979	52.14509775
795.723	51.12370911
796.467	52.0064191
797.211	52.62501306
797.955	51.95440898
798.699	51.35274055
799.443	51.26682039
800.187	51.86271363
800.93	51.05869002
801.674	51.45408847
802.417	51.43633137
803.16	51.10842264
803.904	52.06944738
804.647	50.83118203
805.39	51.30469969
806.133	51.5926633
806.876	51.19240081
807.619	51.16233476
808.361	51.09265942
809.104	50.97634075
809.847	50.91278965
810.589	50.20218252
811.332	50.57686715
812.074	50.14168768
812.816	50.17778185
813.558	50.65980874
814.301	50.2196495
815.043	50.50694578
815.784	50.7101649
816.526	51.21272258
817.268	50.18698571
818.01	49.71160932
818.751	50.46715875
819.493	50.29553594
820.234	50.44692877
820.976	51.32981876
821.717	50.35231
822.458	50.69141143
823.199	51.13356505
823.94	51.32879359
824.681	50.6637765
825.422	50.08151314
826.163	49.88865201
826.903	50.03667849
827.644	50.36535724
828.385	50.61058169
829.125	50.64890065
829.865	49.97659772
830.606	49.83856583
831.346	49.36509516
832.086	49.91269246
832.826	49.42420564
833.566	50.71741707
834.306	50.34570731
835.046	50.26175783
835.785	50.3095761
836.525	49.6306537
837.264	49.58411809
838.004	49.07811436
838.743	48.55800432
839.482	49.39274936
840.222	49.63629311
840.961	50.22293401
841.7	50.34368643
842.439	49.25681689
843.177	49.60192416
843.916	49.17595051
844.655	49.37309836
845.394	48.79757106
846.132	48.55704257
846.87	48.31298061
847.609	49.79980136
848.347	49.62676141
849.085	47.94302578
849.823	48.99858384
850.561	49.84318763
851.299	49.23517765
852.037	49.4417707
852.775	48.74719789
853.513	50.23277791
854.25	49.37451771
854.988	49.86791556
855.725	48.04233604
856.462	48.73794026
857.2	50.31217728
857.937	50.38577894
858.674	49.52356251
859.411	49.29036006
860.148	48.62968204
860.885	49.56825433
861.622	48.55872662
862.358	49.10284602
863.095	50.09745615
863.831	49.07294184
864.568	49.20658256
865.304	50.2410777
866.04	48.99441505
866.776	49.950429
867.513	50.19152954
868.249	50.04549057
868.984	49.79481519
869.72	50.16925303
870.456	50.44747712
871.192	49.29835271
871.927	49.94823627
872.663	51.07449181
873.398	49.88527639
874.134	50.71462346
874.869	49.3562482
875.604	50.12174283
876.339	49.15087913
877.074	50.19769443
877.809	49.64513637
878.544	51.12006469
879.278	50.78202237
880.013	51.24254706
880.748	51.20108857
881.482	51.25959111
882.217	52.090802
882.951	51.33394576
883.685	50.98956489
884.419	50.60843483
885.153	50.32671862
885.887	50.28917747
886.621	50.30091639
887.355	51.18277542
888.089	50.61588119
888.822	50.59973069
889.556	50.53712506
890.289	51.31192224
891.023	51.03424476
891.756	51.22673248
892.489	51.68445563
893.222	51.68742889
893.955	51.41147026
894.688	51.97032885
895.421	52.08925197
896.154	52.56867933
896.887	51.8314523
897.619	51.51170282
898.352	52.15559263
899.084	51.87931936
899.817	52.41204383
900.549	52.73165966
901.281	52.15173788
902.013	52.80922735
902.745	52.84472647
903.477	52.48382295
904.209	52.97280912
904.941	54.18498435
905.673	53.66017035
906.404	52.69141015
907.136	52.60997774
907.867	52.59147259
908.599	52.7181138
909.33	52.59613832
910.061	52.5235071
910.792	51.80376246
911.523	52.31279381
912.254	53.54997164
912.985	53.97493033
913.716	53.9821721
914.446	54.0120586
915.177	54.28764782
915.908	54.43139048
916.638	54.52089424
917.368	54.25530708
918.099	53.72905833
918.829	54.16451055
919.559	53.99457962
920.289	54.1560651
921.019	54.11085733
921.748	54.3382374
922.478	54.59616812
923.208	54.98878742
923.937	54.59553408
924.667	54.32901769
925.396	55.10592145
926.126	55.53397117
926.855	54.90552872
927.584	56.24521471
928.313	55.36840643
929.042	55.40311029
929.771	55.88362873
930.5	56.43361371
931.228	56.5253939
931.957	57.00157167
932.686	56.94233934
933.414	57.17002197
934.142	56.14057018
934.871	56.85963236
935.599	57.28020709
936.327	56.85921418
937.055	57.53218206
937.783	57.28728827
938.511	57.18402837
939.239	57.25062636
939.966	57.43161468
940.694	57.64772406
941.421	58.4609049
942.149	58.10062122
942.876	57.82898442
943.603	57.83490153
944.331	57.89645662
945.058	57.88666735
945.785	58.25461405
946.512	58.19395853
947.239	59.11548943
947.965	58.7985537
948.692	58.37525446
949.418	59.99645686
950.145	59.65498491
950.871	59.0364555
951.598	60.33088443
952.324	59.80115927
953.05	60.0454021
953.776	58.86752972
954.502	59.90454981
955.228	60.41170739
955.954	60.40014903
956.68	61.12281374
957.405	61.07399433
958.131	59.57542373
958.856	59.9251489
959.582	60.77109557
960.307	61.34204286
961.032	61.56224143
961.757	61.36362642
962.482	60.54906492
963.207	60.89205611
963.932	61.34030126
964.657	62.01683332
965.381	62.55217369
966.106	62.26164722
966.831	62.06348747
967.555	62.32661955
968.279	62.71232952
969.004	62.50408653
969.728	62.90870368
970.452	62.60732985
971.176	62.73491486
971.9	63.22083142
972.624	62.85964651
973.347	62.83940684
974.071	62.94434228
974.794	63.31737886
975.518	63.52581915
976.241	63.56239472
976.965	64.79778195
977.688	64.28094331
978.411	64.26113656
979.134	64.37988075
979.857	64.79883604
980.58	64.70096623
981.303	63.97126185
982.025	63.6516428
982.748	63.83404744
983.471	63.97021412
984.193	64.09844689
984.915	64.27223512
985.638	64.50952526
986.36	64.66293327
987.082	64.39601461
987.804	64.79181164
988.526	64.50728278
989.248	72.56644978
989.969	78.78789793
990.691	4.87805538
991.413	146.6667023
