Data from Reflection_18.txt Node
Date: Thu Oct 13 17:31:36 CEST 2022
User: Ocean Optics
Spectrometer: QEP02356
Trigger mode: 4
Integration Time (sec): 1.900000E0
Scans to average: 1
Electric dark correction enabled: true
Nonlinearity correction enabled: true
Boxcar width: 0
XAxis mode: Wavelengths
Number of Pixels in Spectrum: 1044
>>>>>Begin Spectral Data<<<<<
194.596	160.86964345
195.4	70.11487925
196.203	53.84612021
197.007	-117.3911007
197.81	27.03822255
198.613	26.3316847
199.417	23.45765306
200.22	21.54470046
201.023	27.56554846
201.826	28.94635987
202.629	26.27390841
203.432	25.99159756
204.235	29.33720261
205.038	30.99367868
205.84	30.1786342
206.643	32.83983631
207.445	39.34450156
208.248	36.26513301
209.05	38.43703568
209.853	37.13776902
210.655	40.2432576
211.457	40.59008079
212.259	38.21381217
213.061	41.66386162
213.863	44.53251339
214.665	45.29139463
215.467	45.2343502
216.269	47.59537939
217.07	48.8730571
217.872	41.89260348
218.674	42.81109241
219.475	41.24506827
220.277	42.36689038
221.078	40.73836773
221.879	42.17954182
222.68	39.68767022
223.481	40.65854115
224.283	38.50687139
225.084	37.64787486
225.884	42.3957807
226.685	41.32428122
227.486	44.62842042
228.287	43.4137112
229.087	39.7205058
229.888	40.73836783
230.688	44.62178739
231.489	40.93305101
232.289	44.48828231
233.089	43.31471446
233.89	42.03865587
234.69	44.11778641
235.49	41.21469955
236.29	38.33934399
237.09	45.82821596
237.89	44.77373135
238.689	39.36611755
239.489	41.84105011
240.289	42.63568817
241.088	40.05518657
241.888	39.88411258
242.687	37.92485853
243.486	38.9864327
244.286	36.82468783
245.085	35.89741037
245.884	34.31883894
246.683	36.51477234
247.482	35.76557323
248.281	34.6441137
249.08	34.57428403
249.878	32.40061082
250.677	32.08341029
251.476	30.49266639
252.274	27.12911343
253.073	20.7793217
253.871	24.55045106
254.67	26.35450093
255.468	19.1965017
256.266	22.99024541
257.064	21.39168604
257.862	16.8462013
258.66	21.6341221
259.458	19.68402648
260.256	15.22208965
261.054	18.71207622
261.851	23.49897358
262.649	15.57595871
263.446	16.59906555
264.244	13.08636021
265.041	15.27645213
265.839	16.03304946
266.636	14.08172703
267.433	17.3265507
268.23	16.29123731
269.027	12.64560304
269.824	15.92396512
270.621	13.5364406
271.418	14.26079074
272.215	9.7140248
273.011	14.26269173
273.808	10.15538208
274.604	11.80410066
275.401	11.42622332
276.197	10.04976845
276.994	12.63903575
277.79	10.12623817
278.586	11.09035971
279.382	10.64470437
280.178	7.68858185
280.974	9.56212884
281.77	8.70876698
282.566	8.48381835
283.361	8.83707444
284.157	8.21968541
284.953	7.3740966
285.748	7.25427096
286.544	6.97146664
287.339	6.65658415
288.134	7.18939256
288.93	7.17844559
289.725	6.08608645
290.52	6.0514769
291.315	5.78089078
292.11	5.83491964
292.905	5.35930185
293.699	5.18626258
294.494	5.63701048
295.289	5.31289661
296.083	5.27745343
296.878	5.11200125
297.672	5.35423744
298.467	5.13874143
299.261	5.31989343
300.055	5.22188124
300.849	5.3030401
301.643	5.16881754
302.437	5.11423545
303.231	5.20731536
304.025	5.07020086
304.819	4.92417616
305.612	5.24462762
306.406	4.88916167
307.2	5.17330836
307.993	4.86074499
308.786	5.0582339
309.58	5.08753882
310.373	5.03767695
311.166	4.83206956
311.959	4.84981258
312.752	4.85120936
313.545	4.92490144
314.338	4.78993913
315.131	4.68463678
315.924	4.78243146
316.716	5.03982049
317.509	4.69072458
318.302	4.69642363
319.094	4.77176025
319.886	4.7124579
320.679	4.73575439
321.471	4.69688565
322.263	4.88299692
323.055	4.82127593
323.847	4.75150778
324.639	4.81666413
325.431	4.65735901
326.223	4.66605205
327.015	4.76227941
327.806	4.73758062
328.598	4.79483118
329.389	4.71065998
330.181	4.68072508
330.972	4.67182635
331.763	4.73778048
332.555	4.7111309
333.346	4.72721529
334.137	4.79233343
334.928	4.45240565
335.719	4.62395084
336.51	4.69463403
337.3	4.70010068
338.091	4.50016852
338.882	4.67252145
339.672	4.56024011
340.463	4.5856809
341.253	4.63461413
342.043	4.63023761
342.834	4.65767756
343.624	4.59599632
344.414	4.72843233
345.204	4.60811762
345.994	4.47552194
346.784	4.6248216
347.574	4.50635135
348.363	4.54818844
349.153	4.61937741
349.943	4.52607845
350.732	4.6247244
351.521	4.63907875
352.311	4.73976822
353.1	4.69773416
353.889	4.72214058
354.678	4.69536599
355.468	4.74700195
356.257	4.69876056
357.045	4.69076718
357.834	4.72854448
358.623	4.69197356
359.412	4.69638274
360.2	4.78262331
360.989	4.84943403
361.777	4.91657473
362.566	4.79509771
363.354	4.84667933
364.142	4.94822982
364.931	4.90448322
365.719	4.9813746
366.507	4.9524014
367.295	4.99230858
368.083	5.01258511
368.87	4.94160271
369.658	5.01598392
370.446	5.01259003
371.233	5.0051939
372.021	5.1590941
372.808	5.07973623
373.596	5.18731759
374.383	5.19174982
375.17	5.10892352
375.957	5.17372571
376.745	5.16482709
377.532	5.23744804
378.318	5.19465508
379.105	5.28074563
379.892	5.35775914
380.679	5.2896468
381.465	5.35225228
382.252	5.36835415
383.038	5.43633466
383.825	5.44423399
384.611	5.3953691
385.397	5.48349743
386.184	5.47978873
386.97	5.56772712
387.756	5.54308695
388.542	5.5535226
389.328	5.53624007
390.113	5.71293843
390.899	5.68452142
391.685	5.66484079
392.47	5.71017689
393.256	5.68519575
394.041	5.70093046
394.827	5.60377583
395.612	5.70490297
396.397	5.66216125
397.182	5.74388008
397.967	5.7362887
398.752	5.70380241
399.537	5.67723666
400.322	5.63168778
401.107	5.62401196
401.891	5.63737496
402.676	5.60911142
403.461	5.63861666
404.245	5.5983356
405.029	5.57536581
405.814	5.57580072
406.598	5.54911942
407.382	5.65513779
408.166	5.53715719
408.95	5.47300417
409.734	5.48098503
410.518	5.4687883
411.302	5.4090146
412.086	5.45905549
412.869	5.44666719
413.653	5.41931813
414.436	5.42257955
415.22	5.39793303
416.003	5.33079905
416.786	5.29107842
417.569	5.35036691
418.353	5.29866708
419.136	5.27782378
419.919	5.28962505
420.701	5.27117597
421.484	5.21759482
422.267	5.26679092
423.05	5.21212014
423.832	5.24703741
424.615	5.25809725
425.397	5.26875484
426.18	5.20116864
426.962	5.24723556
427.744	5.21152873
428.526	5.18807093
429.308	5.25180324
430.09	5.22084206
430.872	5.15884363
431.654	5.16197725
432.436	5.25031294
433.217	5.21668855
433.999	5.18133267
434.781	5.22581081
435.562	5.12599567
436.343	5.158907
437.125	5.24154033
437.906	5.19514589
438.687	5.17885199
439.468	5.20608673
440.249	5.20363468
441.03	5.2225812
441.811	5.14625247
442.592	5.2566217
443.372	5.22591406
444.153	5.21589819
444.934	5.21830721
445.714	5.22065388
446.494	5.25791102
447.275	5.24552537
448.055	5.22778114
448.835	5.25871096
449.615	5.22992143
450.395	5.26741726
451.175	5.27404988
451.955	5.26121599
452.735	5.23801234
453.515	5.32736604
454.294	5.29808328
455.074	5.31286397
455.853	5.38356152
456.633	5.35806759
457.412	5.32214968
458.191	5.42799416
458.971	5.36488819
459.75	5.4174154
460.529	5.39566415
461.308	5.45341594
462.087	5.52705001
462.865	5.53674952
463.644	5.53301476
464.423	5.5775646
465.201	5.64400824
465.98	5.68573959
466.758	5.67824105
467.537	5.75870732
468.315	5.80778701
469.093	5.81435506
469.871	5.82299478
470.649	5.94291056
471.427	5.9887394
472.205	6.02429702
472.983	6.12201146
473.761	6.09881535
474.538	6.14731392
475.316	6.22673779
476.093	6.27647545
476.871	6.26337209
477.648	6.26097827
478.426	6.37395654
479.203	6.43984752
479.98	6.4127032
480.757	6.49730378
481.534	6.45229062
482.311	6.47512354
483.088	6.55002138
483.864	6.53410653
484.641	6.57100016
485.418	6.60998278
486.194	6.58250644
486.971	6.5894162
487.747	6.60757295
488.523	6.63327408
489.3	6.60624941
490.076	6.59860712
490.852	6.68600732
491.628	6.62620509
492.404	6.7141742
493.179	6.74341846
493.955	6.80584155
494.731	6.79368677
495.506	6.91209324
496.282	6.89043126
497.057	6.98581376
497.833	7.0489987
498.608	7.09964792
499.383	7.2273076
500.159	7.27663536
500.934	7.31291372
501.709	7.39525906
502.483	7.56239822
503.258	7.66079563
504.033	7.74616432
504.808	7.79027793
505.582	8.03231504
506.357	8.20004204
507.131	8.39114556
507.906	8.53360682
508.68	8.63920885
509.454	8.87133828
510.228	9.07330683
511.002	9.35907533
511.776	9.50643089
512.55	9.78448542
513.324	10.0194053
514.098	10.3759381
514.872	10.53452391
515.645	10.88690338
516.419	11.1522289
517.192	11.51805147
517.966	11.76429976
518.739	12.25296692
519.512	12.56605683
520.285	12.94401867
521.058	13.20466411
521.831	13.58722248
522.604	13.8921822
523.377	14.25108298
524.15	14.52190209
524.923	14.82671266
525.695	15.08852235
526.468	15.42989459
527.24	15.65167397
528.012	15.86522869
528.785	16.04135543
529.557	16.25732454
530.329	16.41419769
531.101	16.51593238
531.873	16.57609202
532.645	16.69989886
533.417	16.72214483
534.189	16.79383931
534.96	16.74125954
535.732	16.83599138
536.503	16.68483668
537.275	16.75476206
538.046	16.66273672
538.818	16.49300612
539.589	16.50662349
540.36	16.39940988
541.131	16.29290436
541.902	16.21589127
542.673	16.09619106
543.444	16.01318548
544.214	15.8363293
544.985	15.74253867
545.756	15.60391975
546.526	15.46805946
547.297	15.37355766
548.067	15.31323425
548.837	15.14979142
549.608	14.9668488
550.378	14.91672776
551.148	14.77766131
551.918	14.63350761
552.688	14.54378837
553.457	14.39134847
554.227	14.25650694
554.997	14.13953154
555.766	14.05290857
556.536	13.96364902
557.305	13.84436642
558.075	13.57645408
558.844	13.66226485
559.613	13.53223676
560.382	13.37679602
561.151	13.3025954
561.92	13.15192026
562.689	13.1253498
563.458	12.88042048
564.227	12.86521135
564.995	12.79843096
565.764	12.68620063
566.532	12.59321841
567.301	12.4244065
568.069	12.46156589
568.837	12.22853369
569.606	12.18206472
570.374	12.10593045
571.142	11.98079072
571.91	11.92758803
572.678	11.81975894
573.445	11.71899388
574.213	11.7534709
574.981	11.58729498
575.748	11.51359907
576.516	11.41153444
577.283	11.36024451
578.05	11.27977709
578.818	11.21398904
579.585	11.16564095
580.352	11.0998879
581.119	11.07556448
581.886	10.88193267
582.653	10.91204506
583.419	10.83775276
584.186	10.77634802
584.953	10.69989763
585.719	10.64613284
586.486	10.55423249
587.252	10.55854568
588.018	10.57069008
588.785	10.52702424
589.551	10.37853486
590.317	10.34716875
591.083	10.28628781
591.849	10.26426341
592.615	10.1409006
593.38	10.19040221
594.146	10.11008151
594.912	10.101543
595.677	10.02236727
596.443	9.91504461
597.208	9.91921441
597.973	9.86077462
598.738	9.85143056
599.504	9.79507911
600.269	9.70873411
601.034	9.71304446
601.798	9.63048053
602.563	9.62731043
603.328	9.58745925
604.093	9.4520908
604.857	9.51645522
605.622	9.48185089
606.386	9.43781634
607.151	9.36511992
607.915	9.27908542
608.679	9.3285788
609.443	9.20790145
610.207	9.25190169
610.971	9.17051816
611.735	9.25083249
612.499	9.22183462
613.262	9.10634772
614.026	9.09577992
614.79	9.07035087
615.553	9.05096785
616.316	9.02004525
617.08	8.97050305
617.843	8.90801651
618.606	8.91483839
619.369	8.89414348
620.132	8.89803163
620.895	8.86410019
621.658	8.81316725
622.421	8.8011
623.183	8.84959855
623.946	8.79870856
624.709	8.81059457
625.471	8.78681753
626.233	8.76234551
626.996	8.78640992
627.758	8.75259514
628.52	8.74138878
629.282	8.75257114
630.044	8.75265815
630.806	8.75376717
631.568	8.83441666
632.329	8.72278467
633.091	8.72876395
633.853	8.69517366
634.614	8.72492019
635.376	8.72470373
636.137	8.76250558
636.898	8.7010464
637.659	8.73670645
638.42	8.7176874
639.181	8.71507473
639.942	8.70569488
640.703	8.76591047
641.464	8.72220092
642.225	8.74968466
642.985	8.74198114
643.746	8.75416515
644.506	8.71278035
645.267	8.74880561
646.027	8.77095493
646.787	8.74176485
647.547	8.78217742
648.307	8.77663043
649.067	8.80169931
649.827	8.79593143
650.587	8.83463739
651.347	8.85368899
652.106	8.79214189
652.866	8.85192587
653.626	8.85961747
654.385	8.82971209
655.144	8.83653117
655.904	8.89996312
656.663	8.88387763
657.422	8.85598903
658.181	8.8266843
658.94	8.84328065
659.699	8.91678736
660.458	8.83458235
661.216	8.95646442
661.975	8.94156281
662.733	8.95869311
663.492	8.91837819
664.25	8.93364456
665.009	8.99792878
665.767	8.92521369
666.525	8.98662962
667.283	9.05482472
668.041	9.03143526
668.799	9.05984257
669.557	9.0447121
670.314	9.08819409
671.072	9.07558353
671.83	9.06077389
672.587	9.13431306
673.345	9.17205052
674.102	9.16470439
674.859	9.18055318
675.616	9.22272128
676.374	9.17417738
677.131	9.22016685
677.888	9.26965634
678.644	9.26483878
679.401	9.26606762
680.158	9.29540765
680.914	9.31615812
681.671	9.42432727
682.428	9.34801729
683.184	9.45200357
683.94	9.50122931
684.696	9.53214324
685.453	9.58913728
686.209	9.55728131
686.965	9.65960297
687.721	9.70514582
688.476	9.72556186
689.232	9.72967963
689.988	9.79911128
690.743	9.88261922
691.499	9.91506428
692.254	10.01969339
693.01	9.97157701
693.765	10.05311105
694.52	10.14990145
695.275	10.14198524
696.03	10.2196135
696.785	10.31211915
697.54	10.37760353
698.295	10.46736612
699.049	10.5545082
699.804	10.58427087
700.559	10.60536017
701.313	10.68829485
702.067	10.79255001
702.822	10.89255708
703.576	10.89374267
704.33	11.05577137
705.084	11.08039587
705.838	11.16716709
706.592	11.22101206
707.346	11.32543071
708.099	11.37752093
708.853	11.41268581
709.607	11.47585453
710.36	11.53843042
711.113	11.60492043
711.867	11.65471098
712.62	11.73243034
713.373	11.768781
714.126	11.9036759
714.879	11.88405487
715.632	11.96786467
716.385	11.9816894
717.138	12.07131919
717.89	12.03760357
718.643	12.15999389
719.396	12.20956705
720.148	12.25061188
720.9	12.31691102
721.653	12.36127841
722.405	12.32888598
723.157	12.41237842
723.909	12.50760122
724.661	12.43680623
725.413	12.55801062
726.165	12.54638985
726.916	12.68796404
727.668	12.68815108
728.419	12.76720989
729.171	12.69653576
729.922	12.76676527
730.673	12.81351512
731.425	12.86017024
732.176	12.9178185
732.927	12.96291792
733.678	12.95336532
734.429	12.96508749
735.18	12.99734402
735.93	13.02805151
736.681	13.11192769
737.431	13.07244778
738.182	13.15334234
738.932	13.31724994
739.683	13.28196729
740.433	13.27061726
741.183	13.37003444
741.933	13.29971132
742.683	13.38348708
743.433	13.42838518
744.183	13.4811043
744.933	13.52252917
745.682	13.60237843
746.432	13.58925608
747.181	13.63832029
747.931	13.77441938
748.68	13.77052669
749.429	13.65067815
750.179	13.71545155
750.928	13.77034116
751.677	13.81927898
752.426	13.86470574
753.174	13.86377606
753.923	13.92044026
754.672	13.97124962
755.42	13.96772232
756.169	14.03718237
756.917	14.06215058
757.666	14.08423024
758.414	14.09939456
759.162	14.20026079
759.91	14.09514742
760.658	14.20207881
761.406	14.10176106
762.154	14.22104485
762.902	14.06561402
763.65	14.06530631
764.397	14.24129559
765.145	14.34501913
765.892	14.31925171
766.64	14.23622612
767.387	14.36501708
768.134	14.40806799
768.881	14.52907655
769.628	14.70098078
770.375	14.73057987
771.122	14.72300156
771.869	14.83638964
772.616	15.06871257
773.362	15.12655552
774.109	15.365586
774.855	15.20208255
775.602	15.47152026
776.348	15.537361
777.094	15.57552591
777.841	15.67374279
778.587	15.96064954
779.333	16.06266306
780.078	15.98648891
780.824	16.3658543
781.57	16.71479137
782.316	16.64126259
783.061	16.91230491
783.807	17.07199454
784.552	17.37645018
785.297	17.33282665
786.043	17.8687687
786.788	17.88069304
787.533	17.98455453
788.278	18.65583854
789.023	18.6037302
789.768	18.73748509
790.512	18.9368832
791.257	19.5014865
792.002	19.16417286
792.746	19.36895776
793.491	19.90226811
794.235	20.46897012
794.979	20.36453111
795.723	20.64789468
796.467	20.84726016
797.211	21.25213285
797.955	22.02370482
798.699	21.80687578
799.443	22.12215304
800.187	22.74212801
800.93	23.10293617
801.674	23.57052024
802.417	23.23563545
803.16	23.61134407
803.904	24.22564573
804.647	24.65267749
805.39	24.59296147
806.133	25.23792689
806.876	25.25873003
807.619	26.04380668
808.361	26.72201515
809.104	27.43760182
809.847	27.18527481
810.589	27.25843867
811.332	27.65892997
812.074	28.02559978
812.816	28.59154864
813.558	28.7930761
814.301	29.32577851
815.043	29.93287012
815.784	30.42482673
816.526	31.15160739
817.268	31.23034005
818.01	31.07197449
818.751	32.1093325
819.493	32.66867907
820.234	32.86116615
820.976	33.50066069
821.717	33.49390049
822.458	34.54140058
823.199	35.18965776
823.94	35.41308103
824.681	35.43088057
825.422	35.56292379
826.163	35.6491215
826.903	36.25275836
827.644	37.01432411
828.385	37.9982079
829.125	38.32024832
829.865	38.79548036
830.606	38.93517282
831.346	38.74342654
832.086	39.24112406
832.826	40.10883322
833.566	41.63919449
834.306	41.79525767
835.046	42.20085018
835.785	43.10185887
836.525	43.18573581
837.264	43.6931305
838.004	44.21043474
838.743	44.99238472
839.482	44.12410443
840.222	45.68052247
840.961	46.467018
841.7	46.96441813
842.439	46.757723
843.177	47.88269482
843.916	49.15728157
844.655	48.4316615
845.394	50.25767115
846.132	49.45125779
846.87	51.65973693
847.609	51.0654817
848.347	51.83181801
849.085	51.14349506
849.823	52.65641574
850.561	54.08264202
851.299	53.55266869
852.037	54.15699333
852.775	54.33850993
853.513	55.04556025
854.25	54.99092231
854.988	56.00689292
855.725	54.8063076
856.462	55.79109106
857.2	59.44195325
857.937	58.50923277
858.674	59.5387152
859.411	59.3247442
860.148	59.13097078
860.885	60.95071394
861.622	60.86512152
862.358	61.37708324
863.095	62.75453176
863.831	63.06375264
864.568	63.21041308
865.304	63.37069542
866.04	63.12446967
866.776	65.92054738
867.513	64.35962037
868.249	66.22213232
868.984	64.36917251
869.72	65.38697299
870.456	66.56780034
871.192	68.21243462
871.927	69.02832691
872.663	69.50260724
873.398	68.13854133
874.134	69.56616723
874.869	68.83269683
875.604	70.55751269
876.339	69.20542855
877.074	70.75177927
877.809	71.18243007
878.544	72.6826676
879.278	71.29494462
880.013	73.02673028
880.748	72.91112234
881.482	73.18005119
882.217	73.42105166
882.951	73.71690788
883.685	73.63554399
884.419	73.75020941
885.153	73.932338
885.887	74.39098048
886.621	74.50565796
887.355	74.68675973
888.089	74.10438518
888.822	74.92470188
889.556	74.89774698
890.289	75.71662631
891.023	76.09864666
891.756	77.05148132
892.489	76.9777252
893.222	77.07069689
893.955	77.59132103
894.688	78.95440192
895.421	78.30848944
896.154	78.91294719
896.887	78.53662173
897.619	78.76380892
898.352	78.74697299
899.084	79.2293154
899.817	79.69977831
900.549	80.14918265
901.281	79.69954229
902.013	79.77888268
902.745	80.0393008
903.477	80.16467216
904.209	81.0480194
904.941	82.48431699
905.673	81.24341288
906.404	81.4124344
907.136	81.04463518
907.867	81.75166399
908.599	80.74259112
909.33	81.49682335
910.061	81.79943982
910.792	80.38689635
911.523	80.94185393
912.254	81.02525848
912.985	82.548971
913.716	83.39184665
914.446	82.18827658
915.177	83.90513598
915.908	83.58720462
916.638	83.76333449
917.368	83.56628953
918.099	83.39870782
918.829	83.82479059
919.559	83.63024966
920.289	83.40434617
921.019	83.52573448
921.748	83.68977506
922.478	83.82920347
923.208	84.56350601
923.937	83.96576517
924.667	83.55361019
925.396	84.31171518
926.126	83.97757306
926.855	83.81195399
927.584	84.85857346
928.313	84.53113848
929.042	84.21202831
929.771	84.28783208
930.5	85.957626
931.228	84.86121386
931.957	86.04223389
932.686	85.15865522
933.414	86.70741373
934.142	84.97000988
934.871	85.00635651
935.599	84.47817167
936.327	85.85489817
937.055	85.99359819
937.783	85.89514108
938.511	86.3054203
939.239	85.96078318
939.966	86.58929069
940.694	85.80718795
941.421	85.96891152
942.149	86.30504912
942.876	87.09376505
943.603	86.03382885
944.331	86.23382703
945.058	86.62060424
945.785	86.1388422
946.512	85.5896181
947.239	86.40117757
947.965	86.43917037
948.692	86.56957697
949.418	87.31426786
950.145	87.09695382
950.871	87.47190532
951.598	86.72847464
952.324	87.72954138
953.05	87.08335626
953.776	86.82897489
954.502	87.24319885
955.228	87.07803058
955.954	88.14658096
956.68	87.53538513
957.405	87.53713678
958.131	86.65303371
958.856	87.31995472
959.582	86.98442921
960.307	87.4611474
961.032	87.85246546
961.757	87.31690518
962.482	87.26750171
963.207	86.553251
963.932	86.93681499
964.657	86.89382776
965.381	86.96953433
966.106	88.39543616
966.831	87.18405528
967.555	87.69119078
968.279	87.92354037
969.004	87.95887866
969.728	88.54929672
970.452	88.2832203
971.176	87.93886817
971.9	87.76368219
972.624	87.82327196
973.347	87.62543116
974.071	88.52517326
974.794	87.62705513
975.518	87.95021167
976.241	88.87778882
976.965	88.28747897
977.688	87.70001108
978.411	88.48682674
979.134	88.77226101
979.857	88.6853222
980.58	88.52603205
981.303	88.34750977
982.025	88.09032585
982.748	88.01071965
983.471	88.04083963
984.193	87.94831366
984.915	87.95471758
985.638	88.60480636
986.36	88.463763
987.082	87.98916639
987.804	89.19423532
988.526	87.74205921
989.248	87.61066205
989.969	33.33335878
990.691	-12.19514142
991.413	86.66666065
