Data from Reflection_11.txt Node
Date: Thu Oct 13 17:27:54 CEST 2022
User: Ocean Optics
Spectrometer: QEP02356
Trigger mode: 4
Integration Time (sec): 1.900000E0
Scans to average: 1
Electric dark correction enabled: true
Nonlinearity correction enabled: true
Boxcar width: 0
XAxis mode: Wavelengths
Number of Pixels in Spectrum: 1044
>>>>>Begin Spectral Data<<<<<
194.596	60.86954619
195.4	43.67808662
196.203	97.43589405
197.007	-43.47821109
197.81	34.27368992
198.613	26.26071072
199.417	32.68079628
200.22	28.211534
201.023	31.40372925
201.826	34.85521084
202.629	32.18034848
203.432	30.76000583
204.235	37.83127231
205.038	35.78781933
205.84	35.89865867
206.643	34.26224997
207.445	41.85579582
208.248	40.37161115
209.05	42.43258148
209.853	42.10075324
210.655	45.71250442
211.457	46.30917337
212.259	47.36183641
213.061	50.50456453
213.863	44.06594677
214.665	49.27125889
215.467	48.56926496
216.269	50.26918055
217.07	50.08040712
217.872	51.92129533
218.674	44.97657286
219.475	50.77164152
220.277	47.19757212
221.078	44.10198923
221.879	45.21992006
222.68	41.48896908
223.481	43.18953183
224.283	45.2953021
225.084	42.94632232
225.884	44.01628695
226.685	49.40799122
227.486	46.26951036
228.287	45.04102044
229.087	42.58363222
229.888	44.52911481
230.688	47.42649442
231.489	44.38513843
232.289	47.47580479
233.089	45.90141372
233.89	41.08197722
234.69	48.21319416
235.49	44.89539793
236.29	45.14906936
237.09	44.91275535
237.89	47.72280768
238.689	44.48194978
239.489	44.76505275
240.289	47.58106206
241.088	46.00698381
241.888	45.38336525
242.687	42.31136541
243.486	43.39250511
244.286	41.04841944
245.085	38.10208138
245.884	38.48338464
246.683	41.45521449
247.482	40.00156543
248.281	38.08116258
249.08	37.30530079
249.878	33.27628561
250.677	34.37084619
251.476	33.74910004
252.274	32.94676006
253.073	26.24087658
253.871	28.96324529
254.67	31.05420233
255.468	27.42344491
256.266	25.21507364
257.064	25.57567162
257.862	22.33534531
258.66	27.42344435
259.458	21.08565853
260.256	21.95368589
261.054	20.0122951
261.851	24.86724833
262.649	22.5657768
263.446	19.82499437
264.244	18.20236675
265.041	21.9433978
265.839	22.41400298
266.636	19.35590448
267.433	18.05864905
268.23	16.62763049
269.027	16.22260603
269.824	18.50746385
270.621	16.75073794
271.418	14.93986822
272.215	13.0946406
273.011	14.89377651
273.808	12.78823086
274.604	15.76437757
275.401	14.4451523
276.197	11.51769652
276.994	12.88825304
277.79	12.80169732
278.586	12.88965593
279.382	12.8740944
280.178	10.50868321
280.974	13.8448085
281.77	10.289875
282.566	11.51882354
283.361	11.44648569
284.157	8.67966085
284.953	9.18424495
285.748	8.20648651
286.544	8.87856669
287.339	7.68623283
288.134	7.38093557
288.93	6.98381883
289.725	6.41649751
290.52	7.03302978
291.315	6.73150009
292.11	6.19814289
292.905	6.04085301
293.699	5.80598539
294.494	5.38443083
295.289	5.39564918
296.083	5.51709684
296.878	5.14504155
297.672	5.31470824
298.467	5.55385112
299.261	5.07758328
300.055	5.13289662
300.849	4.80856882
301.643	5.11202039
302.437	4.80166144
303.231	5.51590272
304.025	4.73306116
304.819	5.02183511
305.612	4.89746311
306.406	4.93401377
307.2	5.00830518
307.993	4.81301091
308.786	4.99164752
309.58	4.87932093
310.373	5.01599556
311.166	4.55459465
311.959	4.62198609
312.752	4.66912459
313.545	4.78420226
314.338	4.44124873
315.131	4.50506715
315.924	4.67809239
316.716	4.5716561
317.509	4.64299829
318.302	4.54085811
319.094	4.56090141
319.886	4.58098195
320.679	4.63916834
321.471	4.61242539
322.263	4.53080525
323.055	4.40128826
323.847	4.64778842
324.639	4.52215375
325.431	4.53234178
326.223	4.46090419
327.015	4.52577648
327.806	4.53633346
328.598	4.51712998
329.389	4.35606561
330.181	4.37523322
330.972	4.34287779
331.763	4.30848758
332.555	4.37397749
333.346	4.38393987
334.137	4.29277678
334.928	4.25236206
335.719	4.28887335
336.51	4.25101046
337.3	4.33017991
338.091	4.42422834
338.882	4.37568108
339.672	4.33466706
340.463	4.29025463
341.253	4.27352137
342.043	4.37179628
342.834	4.21284308
343.624	4.31072079
344.414	4.30882531
345.204	4.40912791
345.994	4.30386298
346.784	4.23337644
347.574	4.33949077
348.363	4.3259763
349.153	4.3335732
349.943	4.28176734
350.732	4.26480568
351.521	4.31011894
352.311	4.32579067
353.1	4.30107392
353.889	4.3438228
354.678	4.31804646
355.468	4.34086401
356.257	4.39704346
357.045	4.28397192
357.834	4.40270736
358.623	4.39082155
359.412	4.41274947
360.2	4.44324215
360.989	4.46850506
361.777	4.38578789
362.566	4.42998377
363.354	4.35481456
364.142	4.47509165
364.931	4.47922161
365.719	4.5187338
366.507	4.4121077
367.295	4.37685459
368.083	4.4977699
368.87	4.46434016
369.658	4.5436972
370.446	4.4209236
371.233	4.42710559
372.021	4.49223604
372.808	4.43054815
373.596	4.36770932
374.383	4.49283268
375.17	4.40460257
375.957	4.50483214
376.745	4.49267217
377.532	4.50172049
378.318	4.4409139
379.105	4.44934004
379.892	4.42999503
380.679	4.3707211
381.465	4.4247656
382.252	4.46866512
383.038	4.41842964
383.825	4.44868023
384.611	4.46901198
385.397	4.38424296
386.184	4.34581931
386.97	4.41725364
387.756	4.41201227
388.542	4.46524727
389.328	4.43860552
390.113	4.3887866
390.899	4.43517749
391.685	4.37886058
392.47	4.38563962
393.256	4.39663042
394.041	4.40552782
394.827	4.33580945
395.612	4.42785372
396.397	4.38102402
397.182	4.32909743
397.967	4.31433533
398.752	4.29038554
399.537	4.37372774
400.322	4.3324347
401.107	4.30947219
401.891	4.27689844
402.676	4.39313177
403.461	4.3235711
404.245	4.34513534
405.029	4.30738333
405.814	4.37490663
406.598	4.2860458
407.382	4.35979655
408.166	4.36431964
408.95	4.26579322
409.734	4.29035392
410.518	4.30168762
411.302	4.28643158
412.086	4.39854199
412.869	4.30304465
413.653	4.32601304
414.436	4.36519328
415.22	4.33565691
416.003	4.35855409
416.786	4.37944764
417.569	4.3932333
418.353	4.33879951
419.136	4.34437514
419.919	4.39080522
420.701	4.32404739
421.484	4.28338744
422.267	4.38600975
423.05	4.35766883
423.832	4.45118431
424.615	4.41069856
425.397	4.43854898
426.18	4.41000555
426.962	4.399921
427.744	4.42039106
428.526	4.46420035
429.308	4.45901275
430.09	4.50703017
430.872	4.43786765
431.654	4.51522508
432.436	4.47846217
433.217	4.507312
433.999	4.49759473
434.781	4.51917191
435.562	4.57631274
436.343	4.49713707
437.125	4.61974526
437.906	4.54734909
438.687	4.60685292
439.468	4.60880672
440.249	4.58487881
441.03	4.61063167
441.811	4.62577124
442.592	4.64783632
443.372	4.62936843
444.153	4.67114126
444.934	4.70745169
445.714	4.727046
446.494	4.67917608
447.275	4.67520798
448.055	4.75463827
448.835	4.68187345
449.615	4.73473102
450.395	4.77212347
451.175	4.73385743
451.955	4.74907076
452.735	4.82273409
453.515	4.85856315
454.294	4.81933881
455.074	4.8267494
455.853	4.87608664
456.633	4.85278564
457.412	4.84700245
458.191	4.94790701
458.971	4.90666682
459.75	4.94608391
460.529	4.91754484
461.308	5.02287409
462.087	5.02188796
462.865	5.02584374
463.644	5.01065129
464.423	5.06209829
465.201	5.03395965
465.98	5.03019535
466.758	5.08050525
467.537	5.08855251
468.315	5.07392266
469.093	5.06009446
469.871	5.05918675
470.649	5.13663895
471.427	5.13063413
472.205	5.14351844
472.983	5.15355777
473.761	5.15665897
474.538	5.16312392
475.316	5.12121186
476.093	5.18330838
476.871	5.17849763
477.648	5.13473466
478.426	5.18325107
479.203	5.15734618
479.98	5.23240144
480.757	5.16559527
481.534	5.15688702
482.311	5.16565032
483.088	5.20264152
483.864	5.16090313
484.641	5.19074337
485.418	5.20120074
486.194	5.19135464
486.971	5.19159164
487.747	5.17810996
488.523	5.23933766
489.3	5.25071302
490.076	5.23961148
490.852	5.27446169
491.628	5.2646687
492.404	5.40192005
493.179	5.26193407
493.955	5.34689304
494.731	5.38168363
495.506	5.35502455
496.282	5.45399925
497.057	5.47834221
497.833	5.55113646
498.608	5.57043775
499.383	5.58871479
500.159	5.65603389
500.934	5.66786378
501.709	5.68891531
502.483	5.73394674
503.258	5.80347582
504.033	5.81671633
504.808	5.79233854
505.582	5.9555048
506.357	5.99072221
507.131	6.02819948
507.906	6.04395658
508.68	6.13270797
509.454	6.10164714
510.228	6.21565024
511.002	6.21342311
511.776	6.36283111
512.55	6.40702759
513.324	6.48247054
514.098	6.59963547
514.872	6.63451978
515.645	6.73474539
516.419	6.86419842
517.192	6.93703294
517.966	7.08331258
518.739	7.19174074
519.512	7.29912332
520.285	7.44476094
521.058	7.58609858
521.831	7.65350931
522.604	7.82855862
523.377	7.9674086
524.15	8.10100224
524.923	8.39745615
525.695	8.55924761
526.468	8.79259871
527.24	9.03481254
528.012	9.27644967
528.785	9.45285585
529.557	9.77634134
530.329	10.0832666
531.101	10.40575237
531.873	10.7179947
532.645	11.05651616
533.417	11.40907887
534.189	11.86845239
534.96	12.14089462
535.732	12.57722785
536.503	12.94587427
537.275	13.31847384
538.046	13.76205347
538.818	14.1704634
539.589	14.64844249
540.36	15.13735172
541.131	15.43555376
541.902	15.90497215
542.673	16.44835479
543.444	16.81156939
544.214	17.30712744
544.985	17.60821723
545.756	18.03858027
546.526	18.37866825
547.297	18.91832569
548.067	19.32986272
548.837	19.75365451
549.608	20.14126785
550.378	20.47796533
551.148	20.87221469
551.918	21.18041089
552.688	21.6236423
553.457	21.98933653
554.227	22.40581501
554.997	22.69613388
555.766	23.05869978
556.536	23.50035587
557.305	23.69529874
558.075	24.14370244
558.844	24.4295685
559.613	24.88612797
560.382	25.21025514
561.151	25.65555862
561.92	26.10337723
562.689	26.43699451
563.458	26.83467919
564.227	27.32616807
564.995	27.73600535
565.764	28.31640483
566.532	28.81843947
567.301	29.30552226
568.069	29.90875468
568.837	30.53425141
569.606	31.22621237
570.374	31.77728021
571.142	32.58140046
571.91	33.25676649
572.678	33.91075345
573.445	34.650244
574.213	35.46101328
574.981	36.15826516
575.748	36.91663118
576.516	37.72186804
577.283	38.40905148
578.05	38.97544278
578.818	39.85152852
579.585	40.61033693
580.352	41.26812762
581.119	42.17927497
581.886	42.84656621
582.653	43.53343642
583.419	44.12335874
584.186	44.70026575
584.953	45.4926763
585.719	46.12059844
586.486	46.55645089
587.252	47.04522575
588.018	47.70971223
588.785	48.05983185
589.551	48.69881045
590.317	49.07729312
591.083	49.56852216
591.849	49.70232197
592.615	50.05866069
593.38	50.70751258
594.146	50.79895926
594.912	51.40688255
595.677	51.59315048
596.443	51.94447025
597.208	51.9538925
597.973	52.19866241
598.738	52.51618954
599.504	52.60675713
600.269	52.65505061
601.034	53.10523501
601.798	52.97187441
602.563	53.28526544
603.328	53.16045645
604.093	53.44923916
604.857	53.69346123
605.622	53.52132565
606.386	53.60861959
607.151	53.76847432
607.915	53.67480527
608.679	53.84685182
609.443	53.93665197
610.207	54.06871152
610.971	53.96051406
611.735	54.1951473
612.499	54.33882573
613.262	54.30083632
614.026	54.29601217
614.79	54.38781974
615.553	54.40360242
616.316	54.52068298
617.08	54.4800365
617.843	54.80478697
618.606	55.10747084
619.369	54.70559903
620.132	55.0726471
620.895	55.2466989
621.658	55.16370721
622.421	55.37145241
623.183	55.69391164
623.946	55.76339417
624.709	55.75249936
625.471	55.88695695
626.233	56.17879332
626.996	56.21839484
627.758	56.39355039
628.52	56.38307575
629.282	56.72824039
630.044	56.94393056
630.806	57.01153992
631.568	57.19296509
632.329	57.42077378
633.091	57.58271836
633.853	57.8936478
634.614	58.10146099
635.376	58.04719126
636.137	58.36355695
636.898	58.56979436
637.659	58.61296129
638.42	58.73046994
639.181	59.10674085
639.942	59.01404732
640.703	59.5048331
641.464	59.52359673
642.225	59.59121481
642.985	59.94977639
643.746	60.05604429
644.506	60.11360524
645.267	60.31282913
646.027	60.46955612
646.787	60.68692653
647.547	60.78663196
648.307	60.93221778
649.067	60.91836146
649.827	60.94810872
650.587	61.2236025
651.347	61.35098623
652.106	61.50750243
652.866	61.41666297
653.626	61.70796341
654.385	61.9349311
655.144	61.966743
655.904	61.9642732
656.663	61.9887195
657.422	62.11593174
658.181	62.10445693
658.94	62.09205979
659.699	62.47199095
660.458	62.52877989
661.216	62.40680132
661.975	62.57372957
662.733	62.36659854
663.492	62.30023796
664.25	62.41664724
665.009	62.46337779
665.767	62.32185821
666.525	62.41569549
667.283	62.32290367
668.041	62.16853984
668.799	62.18654943
669.557	62.04287171
670.314	62.20435766
671.072	61.84484291
671.83	61.60855124
672.587	61.784232
673.345	61.7923998
674.102	61.69482992
674.859	61.41422801
675.616	61.48763824
676.374	61.16601278
677.131	61.32857987
677.888	61.24532829
678.644	61.14766074
679.401	60.97995345
680.158	60.86160018
680.914	60.68286035
681.671	60.86531336
682.428	60.68824242
683.184	60.5173886
683.94	60.37435596
684.696	60.39186791
685.453	60.36783263
686.209	60.15597722
686.965	60.26903663
687.721	60.42741252
688.476	60.4419809
689.232	60.29277581
689.988	60.30127447
690.743	60.23953993
691.499	60.31905459
692.254	60.19491131
693.01	60.18854227
693.765	60.1110807
694.52	60.30648659
695.275	60.34837564
696.03	60.44949054
696.785	60.65215616
697.54	60.6684854
698.295	60.68225696
699.049	60.74278701
699.804	60.81044157
700.559	60.8100952
701.313	60.87619219
702.067	61.01908484
702.822	61.36756609
703.576	61.31691281
704.33	61.31117725
705.084	61.43521972
705.838	61.67739032
706.592	61.72222316
707.346	62.12457487
708.099	62.16777559
708.853	62.18411718
709.607	62.16644854
710.36	62.41800959
711.113	62.53585928
711.867	62.58642834
712.62	62.63103746
713.373	62.74848674
714.126	63.0060531
714.879	63.04195597
715.632	63.05675999
716.385	63.15469807
717.138	63.52658789
717.89	63.53856726
718.643	63.8869871
719.396	63.79151649
720.148	63.86038977
720.9	64.21502621
721.653	64.19713026
722.405	64.349163
723.157	64.56500176
723.909	64.67583446
724.661	65.11439455
725.413	64.97025857
726.165	65.14942936
726.916	65.21154086
727.668	65.31955562
728.419	65.46816402
729.171	65.36571629
729.922	65.7061978
730.673	65.99932899
731.425	66.026472
732.176	66.15615776
732.927	66.31872592
733.678	66.70692002
734.429	66.87395538
735.18	66.8970413
735.93	67.26612348
736.681	67.44720883
737.431	67.44146833
738.182	67.77806063
738.932	68.06003599
739.683	68.24240234
740.433	68.23808502
741.183	68.67722078
741.933	68.77767056
742.683	69.20582255
743.433	69.48140385
744.183	69.61022633
744.933	69.92503711
745.682	70.34603374
746.432	70.24229609
747.181	70.84510837
747.931	70.78180338
748.68	70.95725128
749.429	71.32503681
750.179	71.61707688
750.928	71.87204895
751.677	72.07923623
752.426	72.36932942
753.174	72.56547666
753.923	72.65578883
754.672	73.01206177
755.42	73.16099525
756.169	73.05285352
756.917	73.61223429
757.666	73.81293695
758.414	73.95142011
759.162	74.63679467
759.91	74.26690757
760.658	74.75071405
761.406	74.94833752
762.154	75.17268967
762.902	75.22029058
763.65	75.95926304
764.397	76.12447378
765.145	76.13665485
765.892	76.38032787
766.64	76.57102092
767.387	76.49491354
768.134	76.75401294
768.881	76.49892477
769.628	77.1820945
770.375	77.26381075
771.122	77.48716914
771.869	77.37163802
772.616	77.85287451
773.362	77.37022831
774.109	78.05697539
774.855	78.49766547
775.602	77.75004501
776.348	78.6276067
777.094	78.66884716
777.841	78.6445777
778.587	79.0889327
779.333	78.94718506
780.078	79.52761917
780.824	79.79217491
781.57	79.95067698
782.316	79.72084525
783.061	80.49665737
783.807	79.31158423
784.552	79.00610016
785.297	79.57713521
786.043	80.28016063
786.788	80.19620524
787.533	80.48134776
788.278	80.06156761
789.023	80.55048659
789.768	80.76221487
790.512	80.44641632
791.257	81.41567501
792.002	81.13252752
792.746	80.5736719
793.491	80.42340848
794.235	81.12641851
794.979	81.09518371
795.723	80.7855499
796.467	81.92962851
797.211	81.28369604
797.955	82.21392985
798.699	81.36511653
799.443	80.89172297
800.187	81.68864489
800.93	82.23879135
801.674	82.60450497
802.417	82.79396987
803.16	82.35456017
803.904	82.67328177
804.647	82.29308625
805.39	83.24346344
806.133	82.93655316
806.876	81.87758591
807.619	82.90111804
808.361	82.93342822
809.104	82.75214324
809.847	82.19671682
810.589	82.17752843
811.332	82.53669552
812.074	82.37605702
812.816	82.26145055
813.558	83.20980017
814.301	82.99752584
815.043	84.64412604
815.784	82.86489317
816.526	83.69648265
817.268	83.77402598
818.01	82.44147239
818.751	83.22792953
819.493	84.65428221
820.234	83.26440133
820.976	83.99273935
821.717	83.52584913
822.458	84.0700983
823.199	84.50981833
823.94	84.24837437
824.681	84.63581589
825.422	84.12258894
826.163	83.97412616
826.903	84.44611451
827.644	84.88301547
828.385	85.27483545
829.125	84.79049007
829.865	84.26736473
830.606	84.79340627
831.346	84.24043389
832.086	84.61778377
832.826	83.3608558
833.566	85.09371121
834.306	84.39776089
835.046	84.15503538
835.785	84.54800414
836.525	84.68227483
837.264	84.57104625
838.004	84.43605568
838.743	84.24166637
839.482	83.05918029
840.222	84.06911536
840.961	85.65781884
841.7	85.02561728
842.439	83.90595026
843.177	84.66118451
843.916	85.34247023
844.655	84.78310333
845.394	85.97734435
846.132	82.73138716
846.87	81.97163226
847.609	83.58899104
848.347	84.29221041
849.085	83.1231313
849.823	84.30722294
850.561	84.63028969
851.299	85.66111328
852.037	83.45457452
852.775	85.33372853
853.513	83.55770074
854.25	82.04201872
854.988	83.69515728
855.725	84.36462762
856.462	83.14314745
857.2	85.8559682
857.937	84.91652898
858.674	83.99920111
859.411	84.99520177
860.148	84.79033508
860.885	85.08436173
861.622	84.01334816
862.358	83.13884533
863.095	85.9449358
863.831	84.36335855
864.568	85.06031678
865.304	85.72275942
866.04	83.94452296
866.776	85.72395461
867.513	84.02514542
868.249	84.60620749
868.984	84.15535006
869.72	83.98689395
870.456	85.81972327
871.192	85.00776717
871.927	85.0506013
872.663	85.89094427
873.398	84.77240416
874.134	85.98217161
874.869	84.32984747
875.604	85.49066931
876.339	85.20775373
877.074	84.99095443
877.809	86.05349308
878.544	85.55905092
879.278	85.53765858
880.013	86.57403129
880.748	85.2014701
881.482	86.33378469
882.217	86.34720004
882.951	86.00609777
883.685	85.61763523
884.419	85.92913986
885.153	86.21619852
885.887	85.64508934
886.621	85.62794427
887.355	86.18672418
888.089	85.42048864
888.822	85.16796459
889.556	83.99486162
890.289	85.48676429
891.023	85.57226097
891.756	86.58346167
892.489	85.54657966
893.222	85.92183081
893.955	84.88957442
894.688	86.45183845
895.421	85.94428041
896.154	86.91601393
896.887	85.95899667
897.619	85.83940485
898.352	85.53688628
899.084	85.68438994
899.817	86.64821346
900.549	86.25361172
901.281	85.59396615
902.013	85.00390828
902.745	85.55192253
903.477	86.08757497
904.209	86.34295483
904.941	86.67456143
905.673	86.16360873
906.404	86.2038686
907.136	86.3956682
907.867	86.07113772
908.599	85.73607855
909.33	85.52272657
910.061	85.71577492
910.792	84.83644235
911.523	84.94223987
912.254	86.11130077
912.985	87.11331235
913.716	86.59910589
914.446	85.58620904
915.177	86.13268614
915.908	85.79954072
916.638	86.09693951
917.368	86.20419692
918.099	85.46939661
918.829	86.41881841
919.559	85.93748037
920.289	85.22158191
921.019	85.69795027
921.748	85.38641333
922.478	86.58151423
923.208	86.4261334
923.937	85.50254577
924.667	85.3335035
925.396	86.1439422
926.126	85.30081551
926.855	86.16503946
927.584	86.81007393
928.313	86.02762933
929.042	85.50662139
929.771	85.40953845
930.5	86.40877062
931.228	84.85853192
931.957	86.66715238
932.686	86.77326571
933.414	86.34489974
934.142	85.66029294
934.871	84.75683161
935.599	86.87590858
936.327	86.03057689
937.055	85.52117216
937.783	85.10750961
938.511	86.05194441
939.239	86.72869194
939.966	85.95761113
940.694	85.96698044
941.421	86.76187067
942.149	86.20157676
942.876	86.52053767
943.603	85.64224572
944.331	85.86946208
945.058	85.66356926
945.785	86.50206085
946.512	86.03978411
947.239	86.50410955
947.965	86.12441446
948.692	85.59249405
949.418	86.91566844
950.145	86.75306833
950.871	85.80184012
951.598	85.4062128
952.324	86.40011405
953.05	85.94742418
953.776	86.20906464
954.502	86.26698163
955.228	86.04276728
955.954	86.20636196
956.68	86.39178943
957.405	86.79680926
958.131	85.35378906
958.856	85.46116922
959.582	85.90126431
960.307	86.16767793
961.032	86.8671147
961.757	85.31650633
962.482	85.5917387
963.207	85.71566532
963.932	85.46675608
964.657	86.65295406
965.381	85.8796349
966.106	86.67497298
966.831	85.78436587
967.555	86.05085652
968.279	85.72184387
969.004	86.28196948
969.728	86.60509981
970.452	86.04854332
971.176	85.90999896
971.9	86.40952989
972.624	86.23784536
973.347	85.77373712
974.071	86.22242512
974.794	86.09015111
975.518	85.54423624
976.241	86.48102267
976.965	86.64643592
977.688	85.91079513
978.411	86.18121227
979.134	85.97358103
979.857	86.20442118
980.58	86.17866212
981.303	86.28161856
982.025	86.1431767
982.748	85.99926032
983.471	86.05322174
984.193	86.19692452
984.915	86.31952383
985.638	86.49878381
986.36	86.88504326
987.082	85.95428273
987.804	86.6754146
988.526	85.33382656
989.248	65.48681433
989.969	30.30305449
990.691	4.87805538
991.413	39.99998751
